Time,header.seq,header.stamp.secs,header.stamp.nsecs,header.frame_id,orientation.x,orientation.y,orientation.z,orientation.w,orientation_covariance_0,orientation_covariance_1,orientation_covariance_2,orientation_covariance_3,orientation_covariance_4,orientation_covariance_5,orientation_covariance_6,orientation_covariance_7,orientation_covariance_8,angular_velocity.x,angular_velocity.y,angular_velocity.z,angular_velocity_covariance_0,angular_velocity_covariance_1,angular_velocity_covariance_2,angular_velocity_covariance_3,angular_velocity_covariance_4,angular_velocity_covariance_5,angular_velocity_covariance_6,angular_velocity_covariance_7,angular_velocity_covariance_8,linear_acceleration.x,linear_acceleration.y,linear_acceleration.z,linear_acceleration_covariance_0,linear_acceleration_covariance_1,linear_acceleration_covariance_2,linear_acceleration_covariance_3,linear_acceleration_covariance_4,linear_acceleration_covariance_5,linear_acceleration_covariance_6,linear_acceleration_covariance_7,linear_acceleration_covariance_8
1455208573.551869,5729,1455208573,543135599,base_link,0.0,0.0,0.0,0.0,-1.0,0.0,0.0,0.0,0.0,0.0,0.0,0.0,0.0,0.05326321764039556,-0.12996225287348842,-0.62211443064251,0.0,0.0,0.0,0.0,0.0,0.0,0.0,0.0,0.0,-3.190166015625,9.838740234375,-1.4944921875000001,0.0,0.0,0.0,0.0,0.0,0.0,0.0,0.0,0.0
1455208573.5521111,5735,1455208573,549129599,base_link,0.0,0.0,0.0,0.0,-1.0,0.0,0.0,0.0,0.0,0.0,0.0,0.0,0.0,0.06072006869261743,-0.15339807878856412,-0.4868258139769711,0.0,0.0,0.0,0.0,0.0,0.0,0.0,0.0,0.0,0.047900390625000004,6.87849609375,-2.6441015625,0.0,0.0,0.0,0.0,0.0,0.0,0.0,0.0,0.0
1455208573.552209,5736,1455208573,550128599,base_link,0.0,0.0,0.0,0.0,-1.0,0.0,0.0,0.0,0.0,0.0,0.0,0.0,0.0,0.10759169971682281,-0.12357066625729823,-0.6423544549271123,0.0,0.0,0.0,0.0,0.0,0.0,0.0,0.0,0.0,-2.1794677734375,11.3811328125,-0.9244775390625001,0.0,0.0,0.0,0.0,0.0,0.0,0.0,0.0,0.0
1455208573.56285,5737,1455208573,551127599,base_link,0.0,0.0,0.0,0.0,-1.0,0.0,0.0,0.0,0.0,0.0,0.0,0.0,0.0,0.14700649217237394,-0.035153726389045944,-0.4538026164599886,0.0,0.0,0.0,0.0,0.0,0.0,0.0,0.0,0.0,-2.9889843750000002,12.24333984375,-0.39278320312500004,0.0,0.0,0.0,0.0,0.0,0.0,0.0,0.0,0.0
1455208573.562931,5741,1455208573,555123599,base_link,0.0,0.0,0.0,0.0,-1.0,0.0,0.0,0.0,0.0,0.0,0.0,0.0,0.0,-0.10546117084475942,-0.07456851052221868,0.39734360135030866,0.0,0.0,0.0,0.0,0.0,0.0,0.0,0.0,0.0,3.0991552734375003,6.447392578125,-3.190166015625,0.0,0.0,0.0,0.0,0.0,0.0,0.0,0.0,0.0
1455208573.5630026,5743,1455208573,557121599,base_link,0.0,0.0,0.0,0.0,-1.0,0.0,0.0,0.0,0.0,0.0,0.0,0.0,0.0,-0.0,-0.07030745277809189,-0.24714133251459647,0.0,0.0,0.0,0.0,0.0,0.0,0.0,0.0,0.0,0.8861572265625001,8.909472656250001,-0.51732421875,0.0,0.0,0.0,0.0,0.0,0.0,0.0,0.0,0.0
1455208573.563068,5745,1455208573,559119599,base_link,0.0,0.0,0.0,0.0,-1.0,0.0,0.0,0.0,0.0,0.0,0.0,0.0,0.0,-0.039414784133172724,-0.044741102152142,-0.5166532181858585,0.0,0.0,0.0,0.0,0.0,0.0,0.0,0.0,0.0,-3.1949560546875,9.40763671875,-2.4285498046875,0.0,0.0,0.0,0.0,0.0,0.0,0.0,0.0,0.0
1455208573.5631342,5746,1455208573,560118599,base_link,0.0,0.0,0.0,0.0,-1.0,0.0,0.0,0.0,0.0,0.0,0.0,0.0,0.0,-0.07350324608618697,-0.05326321764039556,-0.2748382078514206,0.0,0.0,0.0,0.0,0.0,0.0,0.0,0.0,0.0,-2.6872119140625,8.138276367187501,-3.3865576171875,0.0,0.0,0.0,0.0,0.0,0.0,0.0,0.0,0.0
1455208573.57273,5747,1455208573,561117599,base_link,0.0,0.0,0.0,0.0,-1.0,0.0,0.0,0.0,0.0,0.0,0.0,0.0,0.0,-0.07350324608618697,-0.06285059756468081,0.12037487294920317,0.0,0.0,0.0,0.0,0.0,0.0,0.0,0.0,0.0,-0.9675878906250001,7.2281689453125,-3.5350488281250003,0.0,0.0,0.0,0.0,0.0,0.0,0.0,0.0,0.0
1455208573.5728123,5751,1455208573,565113599,base_link,0.0,0.0,0.0,0.0,-1.0,0.0,0.0,0.0,0.0,0.0,0.0,0.0,0.0,0.1107874930249179,-0.007456850532073217,-0.05326321764039556,0.0,0.0,0.0,0.0,0.0,0.0,0.0,0.0,0.0,1.59029296875,7.137158203125001,-1.4897021484375002,0.0,0.0,0.0,0.0,0.0,0.0,0.0,0.0,0.0
1455208573.5728786,5752,1455208573,566112599,base_link,0.0,0.0,0.0,0.0,-1.0,0.0,0.0,0.0,0.0,0.0,0.0,0.0,0.0,0.07456851052221868,-0.05006742433230048,-0.39521307247824533,0.0,0.0,0.0,0.0,0.0,0.0,0.0,0.0,0.0,-1.4178515625,6.974296875,-2.7063720703125003,0.0,0.0,0.0,0.0,0.0,0.0,0.0,0.0,0.0
1455208573.5729465,5755,1455208573,569109599,base_link,0.0,0.0,0.0,0.0,-1.0,0.0,0.0,0.0,0.0,0.0,0.0,0.0,0.0,0.04793689546023708,-0.12250540182126654,-0.15126754991650074,0.0,0.0,0.0,0.0,0.0,0.0,0.0,0.0,0.0,-0.9627978515625001,9.3262060546875,-2.960244140625,0.0,0.0,0.0,0.0,0.0,0.0,0.0,0.0,0.0
1455208573.5730226,5756,1455208573,570108599,base_link,0.0,0.0,0.0,0.0,-1.0,0.0,0.0,0.0,0.0,0.0,0.0,0.0,0.0,0.10972222858888621,-0.02024002428460221,0.2737729434153889,0.0,0.0,0.0,0.0,0.0,0.0,0.0,0.0,0.0,1.1831396484375,9.134604492187501,-2.069296875,0.0,0.0,0.0,0.0,0.0,0.0,0.0,0.0,0.0
1455208573.5817943,5758,1455208573,572106599,base_link,0.0,0.0,0.0,0.0,-1.0,0.0,0.0,0.0,0.0,0.0,0.0,0.0,0.0,0.11824434407713978,0.10865696415285452,0.6103965218461614,0.0,0.0,0.0,0.0,0.0,0.0,0.0,0.0,0.0,3.0991552734375003,6.3947021484375,-1.8776953125,0.0,0.0,0.0,0.0,0.0,0.0,0.0,0.0,0.0
1455208573.581856,5761,1455208573,575103599,base_link,0.0,0.0,0.0,0.0,-1.0,0.0,0.0,0.0,0.0,0.0,0.0,0.0,0.0,-0.13635383948967858,-0.21731392830570903,-0.671116594699968,0.0,0.0,0.0,0.0,0.0,0.0,0.0,0.0,0.0,-1.2022998046875,9.90580078125,-2.557880859375,0.0,0.0,0.0,0.0,0.0,0.0,0.0,0.0,0.0
1455208573.5819156,5764,1455208573,578100599,base_link,0.0,0.0,0.0,0.0,-1.0,0.0,0.0,0.0,0.0,0.0,0.0,0.0,0.0,0.16298545871284936,0.07137271721412358,0.07882956826634545,0.0,0.0,0.0,0.0,0.0,0.0,0.0,0.0,0.0,-2.1986279296875,9.10107421875,-1.839375,0.0,0.0,0.0,0.0,0.0,0.0,0.0,0.0,0.0
1455208573.5819726,5766,1455208573,580098599,base_link,0.0,0.0,0.0,0.0,-1.0,0.0,0.0,0.0,0.0,0.0,0.0,0.0,0.0,-0.025566344384166086,0.05113268876833217,1.0173274698312418,0.0,0.0,0.0,0.0,0.0,0.0,0.0,0.0,0.0,4.0188427734375,3.477568359375,-2.7399023437500003,0.0,0.0,0.0,0.0,0.0,0.0,0.0,0.0,0.0
1455208573.5916715,5769,1455208573,583095599,base_link,0.0,0.0,0.0,0.0,-1.0,0.0,0.0,0.0,0.0,0.0,0.0,0.0,0.0,-0.07456851052221868,-0.20346549063729696,-0.8884304730714067,0.0,0.0,0.0,0.0,0.0,0.0,0.0,0.0,0.0,-0.6035449218750001,14.475498046875,-0.9867480468750001,0.0,0.0,0.0,0.0,0.0,0.0,0.0,0.0,0.0
1455208573.5917413,5771,1455208573,585093599,base_link,0.0,0.0,0.0,0.0,-1.0,0.0,0.0,0.0,0.0,0.0,0.0,0.0,0.0,0.32490565298966706,0.011717907756051346,-0.7637945340556982,0.0,0.0,0.0,0.0,0.0,0.0,0.0,0.0,0.0,-5.340893554687501,6.619833984375,-2.8931835937500003,0.0,0.0,0.0,0.0,0.0,0.0,0.0,0.0,0.0
1455208573.5918,5774,1455208573,588090599,base_link,0.0,0.0,0.0,0.0,-1.0,0.0,0.0,0.0,0.0,0.0,0.0,0.0,0.0,-0.19494337514904342,-0.05539374651245895,1.040763287423939,0.0,0.0,0.0,0.0,0.0,0.0,0.0,0.0,0.0,4.876259765625,10.360854492187501,-1.7292041015625002,0.0,0.0,0.0,0.0,0.0,0.0,0.0,0.0,0.0
1455208573.5918584,5776,1455208573,590088599,base_link,0.0,0.0,0.0,0.0,-1.0,0.0,0.0,0.0,0.0,0.0,0.0,0.0,0.0,0.05006742433230048,-0.11611381520507637,-0.2844256044204626,0.0,0.0,0.0,0.0,0.0,0.0,0.0,0.0,0.0,1.9974462890625,12.530742187500001,-0.6514453125,0.0,0.0,0.0,0.0,0.0,0.0,0.0,0.0,0.0
1455208573.6027317,5779,1455208573,593085599,base_link,0.0,0.0,0.0,0.0,-1.0,0.0,0.0,0.0,0.0,0.0,0.0,0.0,0.0,0.1267664595653933,-0.04261057744126781,-0.3749730481936431,0.0,0.0,0.0,0.0,0.0,0.0,0.0,0.0,0.0,-3.477568359375,2.1698876953125,-4.4834765625,0.0,0.0,0.0,0.0,0.0,0.0,0.0,0.0,0.0
1455208573.6028109,5781,1455208573,595083599,base_link,0.0,0.0,0.0,0.0,-1.0,0.0,0.0,0.0,0.0,0.0,0.0,0.0,0.0,-0.2705771501072938,-0.03621899082507764,0.726510278794589,0.0,0.0,0.0,0.0,0.0,0.0,0.0,0.0,0.0,2.7542724609375,13.685141601562501,-1.0346484375,0.0,0.0,0.0,0.0,0.0,0.0,0.0,0.0,0.0
1455208573.6028826,5785,1455208573,599079599,base_link,0.0,0.0,0.0,0.0,-1.0,0.0,0.0,0.0,0.0,0.0,0.0,0.0,0.0,0.0884169398682523,-0.09906958422856926,-0.5880259686894957,0.0,0.0,0.0,0.0,0.0,0.0,0.0,0.0,0.0,-2.3231689453125,1.5471826171875,-4.6128076171875,0.0,0.0,0.0,0.0,0.0,0.0,0.0,0.0,0.0
1455208573.6029384,5786,1455208573,600078599,base_link,0.0,0.0,0.0,0.0,-1.0,0.0,0.0,0.0,0.0,0.0,0.0,0.0,0.0,-0.07563377495825037,-0.12783172400142503,-0.42397521225110113,0.0,0.0,0.0,0.0,0.0,0.0,0.0,0.0,0.0,-2.4668701171875003,7.587421875,-2.7590625,0.0,0.0,0.0,0.0,0.0,0.0,0.0,0.0,0.0
1455208573.6127617,5787,1455208573,601077599,base_link,0.0,0.0,0.0,0.0,-1.0,0.0,0.0,0.0,0.0,0.0,0.0,0.0,0.0,-0.16937704532903955,-0.10439590640872773,-0.06817691974483929,0.0,0.0,0.0,0.0,0.0,0.0,0.0,0.0,0.0,-1.1112890625,14.154565429687501,-0.5604345703125,0.0,0.0,0.0,0.0,0.0,0.0,0.0,0.0,0.0
1455208573.612852,5789,1455208573,603075599,base_link,0.0,0.0,0.0,0.0,-1.0,0.0,0.0,0.0,0.0,0.0,0.0,0.0,0.0,0.06817691974483929,0.004261057484052456,0.3174488019374452,0.0,0.0,0.0,0.0,0.0,0.0,0.0,0.0,0.0,1.5950830078125,11.9894677734375,-1.2885205078125002,0.0,0.0,0.0,0.0,0.0,0.0,0.0,0.0,0.0
1455208573.6129982,5792,1455208573,606072599,base_link,0.0,0.0,0.0,0.0,-1.0,0.0,0.0,0.0,0.0,0.0,0.0,0.0,0.0,0.08628641931856731,-0.07030745277809189,-0.02982740212829287,0.0,0.0,0.0,0.0,0.0,0.0,0.0,0.0,0.0,1.0538085937500001,1.6142431640625001,-4.23439453125,0.0,0.0,0.0,0.0,0.0,0.0,0.0,0.0,0.0
1455208573.6130862,5795,1455208573,609070599,base_link,0.0,0.0,0.0,0.0,-1.0,0.0,0.0,0.0,0.0,0.0,0.0,0.0,0.0,-0.01597896550017813,-0.09800431979253756,-0.4005393946584038,0.0,0.0,0.0,0.0,0.0,0.0,0.0,0.0,0.0,-2.4477099609375,15.217954101562501,-0.5843847656250001,0.0,0.0,0.0,0.0,0.0,0.0,0.0,0.0,0.0
1455208573.6131654,5796,1455208573,610069599,base_link,0.0,0.0,0.0,0.0,-1.0,0.0,0.0,0.0,0.0,0.0,0.0,0.0,0.0,0.1107874930249179,-0.05539374651245895,-0.357928817217136,0.0,0.0,0.0,0.0,0.0,0.0,0.0,0.0,0.0,-2.2944287109375003,9.613608398437501,-3.2811767578125,0.0,0.0,0.0,0.0,0.0,0.0,0.0,0.0,0.0
1455208573.6227434,5798,1455208573,612067599,base_link,0.0,0.0,0.0,0.0,-1.0,0.0,0.0,0.0,0.0,0.0,0.0,0.0,0.0,0.14061490555618378,-0.02024002428460221,0.38562569255396006,0.0,0.0,0.0,0.0,0.0,0.0,0.0,0.0,0.0,1.4944921875000001,1.9974462890625,-4.6798681640625,0.0,0.0,0.0,0.0,0.0,0.0,0.0,0.0,0.0
1455208573.6228209,5801,1455208573,615064599,base_link,0.0,0.0,0.0,0.0,-1.0,0.0,0.0,0.0,0.0,0.0,0.0,0.0,0.0,-0.19068231740491662,-0.05539374651245895,0.043675841877299504,0.0,0.0,0.0,0.0,0.0,0.0,0.0,0.0,0.0,2.3423291015625,12.784614257812501,0.21555175781250002,0.0,0.0,0.0,0.0,0.0,0.0,0.0,0.0,0.0
1455208573.6229017,5803,1455208573,617062599,base_link,0.0,0.0,0.0,0.0,-1.0,0.0,0.0,0.0,0.0,0.0,0.0,0.0,0.0,-0.027696873256229475,-0.16831178089300786,-1.0556769895283826,0.0,0.0,0.0,0.0,0.0,0.0,0.0,0.0,0.0,-3.6452197265625004,8.5214794921875,-4.1817041015625005,0.0,0.0,0.0,0.0,0.0,0.0,0.0,0.0,0.0
1455208573.622981,5805,1455208573,619060599,base_link,0.0,0.0,0.0,0.0,-1.0,0.0,0.0,0.0,0.0,0.0,0.0,0.0,0.0,0.0916127331763474,-0.027696873256229475,-0.02450107994813439,0.0,0.0,0.0,0.0,0.0,0.0,0.0,0.0,0.0,-3.2332763671875,4.167333984375,-3.6308496093750002,0.0,0.0,0.0,0.0,0.0,0.0,0.0,0.0,0.0
1455208573.6230645,5806,1455208573,620059599,base_link,0.0,0.0,0.0,0.0,-1.0,0.0,0.0,0.0,0.0,0.0,0.0,0.0,0.0,0.01597896550017813,0.044741102152142,0.757402947439508,0.0,0.0,0.0,0.0,0.0,0.0,0.0,0.0,0.0,0.9723779296875,8.899892578125,-0.296982421875,0.0,0.0,0.0,0.0,0.0,0.0,0.0,0.0,0.0
1455208573.6324532,5808,1455208573,622057599,base_link,0.0,0.0,0.0,0.0,-1.0,0.0,0.0,0.0,0.0,0.0,0.0,0.0,0.0,-0.11717907964110806,0.027696873256229475,0.743554509771096,0.0,0.0,0.0,0.0,0.0,0.0,0.0,0.0,0.0,5.2594628906250005,11.1272607421875,-0.55564453125,0.0,0.0,0.0,0.0,0.0,0.0,0.0,0.0,0.0
1455208573.63254,5810,1455208573,624055599,base_link,0.0,0.0,0.0,0.0,-1.0,0.0,0.0,0.0,0.0,0.0,0.0,0.0,0.0,0.06498112643674421,-0.178964408608568,-0.8458198956301388,0.0,0.0,0.0,0.0,0.0,0.0,0.0,0.0,0.0,-0.871787109375,6.53361328125,-4.2775048828125,0.0,0.0,0.0,0.0,0.0,0.0,0.0,0.0,0.0
1455208573.6326036,5813,1455208573,627052599,base_link,0.0,0.0,0.0,0.0,-1.0,0.0,0.0,0.0,0.0,0.0,0.0,0.0,0.0,0.06391586200071252,-0.0031957930480207607,0.1320927817455518,0.0,0.0,0.0,0.0,0.0,0.0,0.0,0.0,0.0,-1.7627343750000002,9.896220703125001,-1.3412109375,0.0,0.0,0.0,0.0,0.0,0.0,0.0,0.0,0.0
1455208573.6327047,5815,1455208573,629050599,base_link,0.0,0.0,0.0,0.0,-1.0,0.0,0.0,0.0,0.0,0.0,0.0,0.0,0.0,-0.05539374651245895,0.08202536157444053,0.9310410505126744,0.0,0.0,0.0,0.0,0.0,0.0,0.0,0.0,0.0,3.6979101562500003,10.174042968750001,-2.1219873046875,0.0,0.0,0.0,0.0,0.0,0.0,0.0,0.0,0.0
1455208573.6327662,5816,1455208573,630049599,base_link,0.0,0.0,0.0,0.0,-1.0,0.0,0.0,0.0,0.0,0.0,0.0,0.0,0.0,-0.001065264371013114,-0.006391586096041521,0.5102616315696684,0.0,0.0,0.0,0.0,0.0,0.0,0.0,0.0,0.0,3.73623046875,7.386240234375,-3.3626074218750004,0.0,0.0,0.0,0.0,0.0,0.0,0.0,0.0,0.0
1455208573.6425095,5818,1455208573,632047599,base_link,0.0,0.0,0.0,0.0,-1.0,0.0,0.0,0.0,0.0,0.0,0.0,0.0,0.0,0.07989483270237714,-0.16937704532903955,-0.6721818591359997,0.0,0.0,0.0,0.0,0.0,0.0,0.0,0.0,0.0,-1.4034814453125,5.6378759765625,-3.1853759765625003,0.0,0.0,0.0,0.0,0.0,0.0,0.0,0.0,0.0
1455208573.6425784,5820,1455208573,634045599,base_link,0.0,0.0,0.0,0.0,-1.0,0.0,0.0,0.0,0.0,0.0,0.0,0.0,0.0,-0.019174759848570515,-0.044741102152142,-0.4005393946584038,0.0,0.0,0.0,0.0,0.0,0.0,0.0,0.0,0.0,-2.4477099609375,12.530742187500001,-1.0681787109375,0.0,0.0,0.0,0.0,0.0,0.0,0.0,0.0,0.0
1455208573.642639,5821,1455208573,635044599,base_link,0.0,0.0,0.0,0.0,-1.0,0.0,0.0,0.0,0.0,0.0,0.0,0.0,0.0,-0.052197953204363864,0.0458063665881737,0.1352885750536469,0.0,0.0,0.0,0.0,0.0,0.0,0.0,0.0,0.0,-1.1112890625,11.70685546875,-1.8345849609375,0.0,0.0,0.0,0.0,0.0,0.0,0.0,0.0,0.0
1455208573.642698,5824,1455208573,638041599,base_link,0.0,0.0,0.0,0.0,-1.0,0.0,0.0,0.0,0.0,0.0,0.0,0.0,0.0,-0.07350324608618697,-0.089482204304284,0.3323625040418889,0.0,0.0,0.0,0.0,0.0,0.0,0.0,0.0,0.0,3.266806640625,3.5877392578125002,-3.7314404296875003,0.0,0.0,0.0,0.0,0.0,0.0,0.0,0.0,0.0
1455208573.6427557,5826,1455208573,640039599,base_link,0.0,0.0,0.0,0.0,-1.0,0.0,0.0,0.0,0.0,0.0,0.0,0.0,0.0,-0.10759169971682281,-0.10759169971682281,-0.47510790518062246,0.0,0.0,0.0,0.0,0.0,0.0,0.0,0.0,0.0,-0.8190966796875,11.3811328125,-0.6514453125,0.0,0.0,0.0,0.0,0.0,0.0,0.0,0.0,0.0
1455208573.6525338,5829,1455208573,643036599,base_link,0.0,0.0,0.0,0.0,-1.0,0.0,0.0,0.0,0.0,0.0,0.0,0.0,0.0,0.008522114968104911,0.013848436628114738,0.07030745277809189,0.0,0.0,0.0,0.0,0.0,0.0,0.0,0.0,0.0,-2.1028271484375,6.3563818359375,-3.4344580078125,0.0,0.0,0.0,0.0,0.0,0.0,0.0,0.0,0.0
1455208573.652615,5831,1455208573,645034599,base_link,0.0,0.0,0.0,0.0,-1.0,0.0,0.0,0.0,0.0,0.0,0.0,0.0,0.0,-0.0884169398682523,-0.09267799761237908,0.535827978034429,0.0,0.0,0.0,0.0,0.0,0.0,0.0,0.0,0.0,3.6212695312500003,7.03177734375,-2.8931835937500003,0.0,0.0,0.0,0.0,0.0,0.0,0.0,0.0,0.0
1455208573.652711,5834,1455208573,648031599,base_link,0.0,0.0,0.0,0.0,-1.0,0.0,0.0,0.0,0.0,0.0,0.0,0.0,0.0,0.14807175660840563,-0.013848436628114738,-0.3611246105252311,0.0,0.0,0.0,0.0,0.0,0.0,0.0,0.0,0.0,-0.9148974609375,9.4603271484375,-1.2981005859375,0.0,0.0,0.0,0.0,0.0,0.0,0.0,0.0,0.0
1455208573.6527708,5836,1455208573,650029599,base_link,0.0,0.0,0.0,0.0,-1.0,0.0,0.0,0.0,0.0,0.0,0.0,0.0,0.0,0.04154531300523611,-0.08096009713840883,-0.3547330239090409,0.0,0.0,0.0,0.0,0.0,0.0,0.0,0.0,0.0,-2.7494824218750002,5.906118164062501,-4.042792968750001,0.0,0.0,0.0,0.0,0.0,0.0,0.0,0.0,0.0
1455208573.6623547,5837,1455208573,651028599,base_link,0.0,0.0,0.0,0.0,-1.0,0.0,0.0,0.0,0.0,0.0,0.0,0.0,0.0,-0.06072006869261743,-0.12037487294920317,-0.07776430383031376,0.0,0.0,0.0,0.0,0.0,0.0,0.0,0.0,0.0,-0.756826171875,8.071215820312501,-4.3541455078125,0.0,0.0,0.0,0.0,0.0,0.0,0.0,0.0,0.0
1455208573.662434,5841,1455208573,655024599,base_link,0.0,0.0,0.0,0.0,-1.0,0.0,0.0,0.0,0.0,0.0,0.0,0.0,0.0,0.1374191039257103,0.06391586200071252,0.21198760612555057,0.0,0.0,0.0,0.0,0.0,0.0,0.0,0.0,0.0,0.7711962890625,3.879931640625,-2.8500732421875004,0.0,0.0,0.0,0.0,0.0,0.0,0.0,0.0,0.0
1455208573.662502,5842,1455208573,656023599,base_link,0.0,0.0,0.0,0.0,-1.0,0.0,0.0,0.0,0.0,0.0,0.0,0.0,0.0,-0.035153726389045944,-0.052197953204363864,-0.12037487294920317,0.0,0.0,0.0,0.0,0.0,0.0,0.0,0.0,0.0,-0.05748046875,3.1374755859375,-4.1481738281250005,0.0,0.0,0.0,0.0,0.0,0.0,0.0,0.0,0.0
1455208573.6625602,5845,1455208573,659020599,base_link,0.0,0.0,0.0,0.0,-1.0,0.0,0.0,0.0,0.0,0.0,0.0,0.0,0.0,-0.12889698843745673,-0.11824434407713978,-0.4005393946584038,0.0,0.0,0.0,0.0,0.0,0.0,0.0,0.0,0.0,-2.155517578125,14.283896484375001,-1.5328125000000001,0.0,0.0,0.0,0.0,0.0,0.0,0.0,0.0,0.0
1455208573.6626167,5846,1455208573,660019599,base_link,0.0,0.0,0.0,0.0,-1.0,0.0,0.0,0.0,0.0,0.0,0.0,0.0,0.0,0.04793689546023708,0.03728425526110934,0.05858953982055403,0.0,0.0,0.0,0.0,0.0,0.0,0.0,0.0,0.0,-1.1927197265625,11.927197265625,-0.996328125,0.0,0.0,0.0,0.0,0.0,0.0,0.0,0.0,0.0
1455208573.6734843,5848,1455208573,662017599,base_link,0.0,0.0,0.0,0.0,-1.0,0.0,0.0,0.0,0.0,0.0,0.0,0.0,0.0,-0.0,0.089482204304284,0.8245146069095048,0.0,0.0,0.0,0.0,0.0,0.0,0.0,0.0,0.0,3.4488281250000004,1.619033203125,-3.8416113281250004,0.0,0.0,0.0,0.0,0.0,0.0,0.0,0.0,0.0
1455208573.6735547,5850,1455208573,664015599,base_link,0.0,0.0,0.0,0.0,-1.0,0.0,0.0,0.0,0.0,0.0,0.0,0.0,0.0,-0.3163835375014135,-0.17257283863713463,-0.043675841877299504,0.0,0.0,0.0,0.0,0.0,0.0,0.0,0.0,0.0,2.845283203125,9.7381494140625,-1.9974462890625,0.0,0.0,0.0,0.0,0.0,0.0,0.0,0.0,0.0
1455208573.6736255,5853,1455208573,667012599,base_link,0.0,0.0,0.0,0.0,-1.0,0.0,0.0,0.0,0.0,0.0,0.0,0.0,0.0,0.16298545871284936,0.011717907756051346,-0.7499460963872862,0.0,0.0,0.0,0.0,0.0,0.0,0.0,0.0,0.0,-4.9385302734375,8.9525830078125,-2.5770410156250003,0.0,0.0,0.0,0.0,0.0,0.0,0.0,0.0,0.0
1455208573.6737037,5856,1455208573,670009599,base_link,0.0,0.0,0.0,0.0,-1.0,0.0,0.0,0.0,0.0,0.0,0.0,0.0,0.0,-0.1565938720966592,-0.02024002428460221,1.075917013812985,0.0,0.0,0.0,0.0,0.0,0.0,0.0,0.0,0.0,4.196074218750001,8.4639990234375,-1.580712890625,0.0,0.0,0.0,0.0,0.0,0.0,0.0,0.0,0.0
1455208573.6824434,5858,1455208573,672007599,base_link,0.0,0.0,0.0,0.0,-1.0,0.0,0.0,0.0,0.0,0.0,0.0,0.0,0.0,-0.09054746874031569,-0.13102751730952011,-0.10226537753666434,0.0,0.0,0.0,0.0,0.0,0.0,0.0,0.0,0.0,2.9458740234375003,12.2193896484375,-0.51732421875,0.0,0.0,0.0,0.0,0.0,0.0,0.0,0.0,0.0
1455208573.6825287,5860,1455208573,674005599,base_link,0.0,0.0,0.0,0.0,-1.0,0.0,0.0,0.0,0.0,0.0,0.0,0.0,0.0,0.16724651645697614,-0.07776430383031376,-1.0780475426850484,0.0,0.0,0.0,0.0,0.0,0.0,0.0,0.0,0.0,-4.4499462890625,6.112089843750001,-4.00447265625,0.0,0.0,0.0,0.0,0.0,0.0,0.0,0.0,0.0
1455208573.6826057,5863,1455208573,677002599,base_link,0.0,0.0,0.0,0.0,-1.0,0.0,0.0,0.0,0.0,0.0,0.0,0.0,0.0,-0.1320927817455518,0.007456850532073217,0.8149272269852196,0.0,0.0,0.0,0.0,0.0,0.0,0.0,0.0,0.0,1.37953125,11.82181640625,-0.795146484375,0.0,0.0,0.0,0.0,0.0,0.0,0.0,0.0,0.0
1455208573.6826801,5866,1455208573,679999599,base_link,0.0,0.0,0.0,0.0,-1.0,0.0,0.0,0.0,0.0,0.0,0.0,0.0,0.0,0.10546117084475942,-0.07989483270237714,-0.30360036426903314,0.0,0.0,0.0,0.0,0.0,0.0,0.0,0.0,0.0,1.8154248046875001,5.815107421875,-3.5637890625,0.0,0.0,0.0,0.0,0.0,0.0,0.0,0.0,0.0
1455208573.6922894,5868,1455208573,681997599,base_link,0.0,0.0,0.0,0.0,-1.0,0.0,0.0,0.0,0.0,0.0,0.0,0.0,0.0,0.07030745277809189,-0.10439590640872773,-0.671116594699968,0.0,0.0,0.0,0.0,0.0,0.0,0.0,0.0,0.0,-3.4919384765625003,5.7336767578125,-3.4152978515625003,0.0,0.0,0.0,0.0,0.0,0.0,0.0,0.0,0.0
1455208573.6923773,5871,1455208573,684994599,base_link,0.0,0.0,0.0,0.0,-1.0,0.0,0.0,0.0,0.0,0.0,0.0,0.0,0.0,-0.2183791927417407,0.0,0.48576054954093945,0.0,0.0,0.0,0.0,0.0,0.0,0.0,0.0,0.0,2.3231689453125,11.5392041015625,-2.1603076171875,0.0,0.0,0.0,0.0,0.0,0.0,0.0,0.0,0.0
1455208573.692446,5874,1455208573,687991599,base_link,0.0,0.0,0.0,0.0,-1.0,0.0,0.0,0.0,0.0,0.0,0.0,0.0,0.0,0.005326322180158476,-0.043675841877299504,-0.17363810307316632,0.0,0.0,0.0,0.0,0.0,0.0,0.0,0.0,0.0,-0.26345214843750003,2.12677734375,-3.9326220703125,0.0,0.0,0.0,0.0,0.0,0.0,0.0,0.0,0.0
1455208573.6925075,5876,1455208573,689989599,base_link,0.0,0.0,0.0,0.0,-1.0,0.0,0.0,0.0,0.0,0.0,0.0,0.0,0.0,-0.2002696973292019,-0.10333064197269604,-0.25672871243888173,0.0,0.0,0.0,0.0,0.0,0.0,0.0,0.0,0.0,-1.504072265625,12.1475390625,-0.10538085937500001,0.0,0.0,0.0,0.0,0.0,0.0,0.0,0.0,0.0
1455208573.7022045,5878,1455208573,691987599,base_link,0.0,0.0,0.0,0.0,-1.0,0.0,0.0,0.0,0.0,0.0,0.0,0.0,0.0,-0.16511598758491275,-0.039414784133172724,-0.14594122773634224,0.0,0.0,0.0,0.0,0.0,0.0,0.0,0.0,0.0,-0.6274951171875001,12.6409130859375,-2.5866210937500003,0.0,0.0,0.0,0.0,0.0,0.0,0.0,0.0,0.0
1455208573.7022936,5881,1455208573,694984599,base_link,0.0,0.0,0.0,0.0,-1.0,0.0,0.0,0.0,0.0,0.0,0.0,0.0,0.0,0.1118527574609496,-0.001065264371013114,0.4761731696166542,0.0,0.0,0.0,0.0,0.0,0.0,0.0,0.0,0.0,2.5243505859375,1.9878662109375,-3.0320947265625002,0.0,0.0,0.0,0.0,0.0,0.0,0.0,0.0,0.0
1455208573.7023714,5885,1455208573,698980599,base_link,0.0,0.0,0.0,0.0,-1.0,0.0,0.0,0.0,0.0,0.0,0.0,0.0,0.0,-0.05752427538452234,-0.12357066625729823,-0.8159924914212513,0.0,0.0,0.0,0.0,0.0,0.0,0.0,0.0,0.0,-3.266806640625,12.7462939453125,-2.9937744140625,0.0,0.0,0.0,0.0,0.0,0.0,0.0,0.0,0.0
1455208573.7024276,5886,1455208573,699979599,base_link,0.0,0.0,0.0,0.0,-1.0,0.0,0.0,0.0,0.0,0.0,0.0,0.0,0.0,0.1331580461815835,-0.07030745277809189,-0.605070199666003,0.0,0.0,0.0,0.0,0.0,0.0,0.0,0.0,0.0,-4.2679248046875005,6.0210791015625,-4.521796875000001,0.0,0.0,0.0,0.0,0.0,0.0,0.0,0.0,0.0
1455208573.7123144,5888,1455208573,701977599,base_link,0.0,0.0,0.0,0.0,-1.0,0.0,0.0,0.0,0.0,0.0,0.0,0.0,0.0,0.04793689546023708,0.02876213769226117,0.6902913545485385,0.0,0.0,0.0,0.0,0.0,0.0,0.0,0.0,0.0,1.9399658203125,4.27271484375,-2.289638671875,0.0,0.0,0.0,0.0,0.0,0.0,0.0,0.0,0.0
1455208573.7123828,5892,1455208573,705973599,base_link,0.0,0.0,0.0,0.0,-1.0,0.0,0.0,0.0,0.0,0.0,0.0,0.0,0.0,0.05113268876833217,-0.14061490555618378,-0.8436893667580754,0.0,0.0,0.0,0.0,0.0,0.0,0.0,0.0,0.0,-1.8920654296875001,7.649692382812501,-3.9613623046875004,0.0,0.0,0.0,0.0,0.0,0.0,0.0,0.0,0.0
1455208573.7124429,5895,1455208573,708970599,base_link,0.0,0.0,0.0,0.0,-1.0,0.0,0.0,0.0,0.0,0.0,0.0,0.0,0.0,-0.06391586200071252,-0.02450107994813439,0.18748652409682154,0.0,0.0,0.0,0.0,0.0,0.0,0.0,0.0,0.0,-0.9580078125,9.426796875,-2.2848486328125,0.0,0.0,0.0,0.0,0.0,0.0,0.0,0.0,0.0
1455208573.7124984,5896,1455208573,709969599,base_link,0.0,0.0,0.0,0.0,-1.0,0.0,0.0,0.0,0.0,0.0,0.0,0.0,0.0,-0.1374191039257103,0.07563377495825037,0.8255798713455366,0.0,0.0,0.0,0.0,0.0,0.0,0.0,0.0,0.0,2.4285498046875,13.699511718750001,-0.3305126953125,0.0,0.0,0.0,0.0,0.0,0.0,0.0,0.0,0.0
1455208573.7221117,5898,1455208573,711967599,base_link,0.0,0.0,0.0,0.0,-1.0,0.0,0.0,0.0,0.0,0.0,0.0,0.0,0.0,-0.05326321764039556,0.027696873256229475,0.46765105412840063,0.0,0.0,0.0,0.0,0.0,0.0,0.0,0.0,0.0,3.65958984375,6.198310546875001,-2.960244140625,0.0,0.0,0.0,0.0,0.0,0.0,0.0,0.0,0.0
1455208573.722223,5901,1455208573,714964599,base_link,0.0,0.0,0.0,0.0,-1.0,0.0,0.0,0.0,0.0,0.0,0.0,0.0,0.0,-0.1587244009687226,-0.178964408608568,-0.8724515065309312,0.0,0.0,0.0,0.0,0.0,0.0,0.0,0.0,0.0,-3.0656250000000003,11.8074462890625,-1.9112255859375,0.0,0.0,0.0,0.0,0.0,0.0,0.0,0.0,0.0
1455208573.7222884,5905,1455208573,718960599,base_link,0.0,0.0,0.0,0.0,-1.0,0.0,0.0,0.0,0.0,0.0,0.0,0.0,0.0,-0.12889698843745673,0.004261057484052456,0.6753776524440948,0.0,0.0,0.0,0.0,0.0,0.0,0.0,0.0,0.0,3.5254687500000004,3.0608349609375,-4.2152343750000005,0.0,0.0,0.0,0.0,0.0,0.0,0.0,0.0,0.0
1455208573.7223454,5906,1455208573,719959599,base_link,0.0,0.0,0.0,0.0,-1.0,0.0,0.0,0.0,0.0,0.0,0.0,0.0,0.0,-0.22477077935793086,-0.10439590640872773,0.25459818356681835,0.0,0.0,0.0,0.0,0.0,0.0,0.0,0.0,0.0,3.2141162109375,3.266806640625,-4.5457470703125,0.0,0.0,0.0,0.0,0.0,0.0,0.0,0.0,0.0
1455208573.7320955,5910,1455208573,723956599,base_link,0.0,0.0,0.0,0.0,-1.0,0.0,0.0,0.0,0.0,0.0,0.0,0.0,0.0,0.10972222858888621,0.06391586200071252,-0.22477077935793086,0.0,0.0,0.0,0.0,0.0,0.0,0.0,0.0,0.0,-2.7303222656250004,8.5981201171875,-1.7339941406250001,0.0,0.0,0.0,0.0,0.0,0.0,0.0,0.0,0.0
1455208573.7321858,5913,1455208573,726953599,base_link,0.0,0.0,0.0,0.0,-1.0,0.0,0.0,0.0,0.0,0.0,0.0,0.0,0.0,-0.1331580461815835,-0.10333064197269604,0.5145226893137952,0.0,0.0,0.0,0.0,0.0,0.0,0.0,0.0,0.0,3.8943017578125003,9.034013671875,-2.941083984375,0.0,0.0,0.0,0.0,0.0,0.0,0.0,0.0,0.0
1455208573.7322478,5915,1455208573,728951599,base_link,0.0,0.0,0.0,0.0,-1.0,0.0,0.0,0.0,0.0,0.0,0.0,0.0,0.0,0.12570119512936162,-0.035153726389045944,-0.21944445717777242,0.0,0.0,0.0,0.0,0.0,0.0,0.0,0.0,0.0,0.39278320312500004,10.5428759765625,-0.42152343750000004,0.0,0.0,0.0,0.0,0.0,0.0,0.0,0.0,0.0
1455208573.7323058,5916,1455208573,729950599,base_link,0.0,0.0,0.0,0.0,-1.0,0.0,0.0,0.0,0.0,0.0,0.0,0.0,0.0,0.16511598758491275,-0.007456850532073217,-0.5177184826218902,0.0,0.0,0.0,0.0,0.0,0.0,0.0,0.0,0.0,-2.251318359375,8.5789599609375,-1.5088623046875,0.0,0.0,0.0,0.0,0.0,0.0,0.0,0.0,0.0
1455208573.7419388,5917,1455208573,730949599,base_link,0.0,0.0,0.0,0.0,-1.0,0.0,0.0,0.0,0.0,0.0,0.0,0.0,0.0,0.05965480425658574,-0.02876213769226117,-0.5475458868307778,0.0,0.0,0.0,0.0,0.0,0.0,0.0,0.0,0.0,-3.35302734375,6.677314453125001,-3.9613623046875004,0.0,0.0,0.0,0.0,0.0,0.0,0.0,0.0,0.0
1455208573.7420237,5919,1455208573,732947599,base_link,0.0,0.0,0.0,0.0,-1.0,0.0,0.0,0.0,0.0,0.0,0.0,0.0,0.0,-0.16618125202094444,-0.09906958422856926,0.12357066625729823,0.0,0.0,0.0,0.0,0.0,0.0,0.0,0.0,0.0,-0.316142578125,8.8184619140625,-3.96615234375,0.0,0.0,0.0,0.0,0.0,0.0,0.0,0.0,0.0
1455208573.742096,5922,1455208573,735944599,base_link,0.0,0.0,0.0,0.0,-1.0,0.0,0.0,0.0,0.0,0.0,0.0,0.0,0.0,0.02450107994813439,0.04048004856920442,0.2950782487807796,0.0,0.0,0.0,0.0,0.0,0.0,0.0,0.0,0.0,3.0895751953125004,7.6209521484375005,-1.47533203125,0.0,0.0,0.0,0.0,0.0,0.0,0.0,0.0,0.0
1455208573.7421806,5924,1455208573,737942599,base_link,0.0,0.0,0.0,0.0,-1.0,0.0,0.0,0.0,0.0,0.0,0.0,0.0,0.0,-0.1757686153004729,-0.07137271721412358,-0.38242989924586496,0.0,0.0,0.0,0.0,0.0,0.0,0.0,0.0,0.0,-1.140029296875,5.182822265625,-4.1912841796875,0.0,0.0,0.0,0.0,0.0,0.0,0.0,0.0,0.0
1455208573.7422616,5926,1455208573,739940599,base_link,0.0,0.0,0.0,0.0,-1.0,0.0,0.0,0.0,0.0,0.0,0.0,0.0,0.0,-0.25140239025872324,-0.16937704532903955,-0.4889563428490345,0.0,0.0,0.0,0.0,0.0,0.0,0.0,0.0,0.0,-2.557880859375,13.364208984375,-1.714833984375,0.0,0.0,0.0,0.0,0.0,0.0,0.0,0.0,0.0
1455208573.7519817,5927,1455208573,740939599,base_link,0.0,0.0,0.0,0.0,-1.0,0.0,0.0,0.0,0.0,0.0,0.0,0.0,0.0,-0.14594122773634224,-0.0884169398682523,-0.16298545871284936,0.0,0.0,0.0,0.0,0.0,0.0,0.0,0.0,0.0,-1.0873388671875,11.1751611328125,-1.8633251953125,0.0,0.0,0.0,0.0,0.0,0.0,0.0,0.0,0.0
1455208573.7521474,5928,1455208573,741938599,base_link,0.0,0.0,0.0,0.0,-1.0,0.0,0.0,0.0,0.0,0.0,0.0,0.0,0.0,-0.04154531300523611,0.02982740212829287,0.25992450574697684,0.0,0.0,0.0,0.0,0.0,0.0,0.0,0.0,0.0,1.082548828125,8.9334228515625,-2.05013671875,0.0,0.0,0.0,0.0,0.0,0.0,0.0,0.0,0.0
1455208573.7522442,5932,1455208573,745934599,base_link,0.0,0.0,0.0,0.0,-1.0,0.0,0.0,0.0,0.0,0.0,0.0,0.0,0.0,-0.21731392830570903,-0.1576591365326909,-0.30146983539696975,0.0,0.0,0.0,0.0,0.0,0.0,0.0,0.0,0.0,0.7041357421875001,9.3836865234375,-1.7196240234375,0.0,0.0,0.0,0.0,0.0,0.0,0.0,0.0,0.0
1455208573.7523286,5934,1455208573,747932599,base_link,0.0,0.0,0.0,0.0,-1.0,0.0,0.0,0.0,0.0,0.0,0.0,0.0,0.0,-0.0458063665881737,-0.13635383948967858,-0.8980178529956919,0.0,0.0,0.0,0.0,0.0,0.0,0.0,0.0,0.0,-3.7122802734375,12.28166015625,-2.0453466796875,0.0,0.0,0.0,0.0,0.0,0.0,0.0,0.0,0.0
1455208573.7524025,5936,1455208573,749930599,base_link,0.0,0.0,0.0,0.0,-1.0,0.0,0.0,0.0,0.0,0.0,0.0,0.0,0.0,0.13635383948967858,0.09693905535650586,0.22477077935793086,0.0,0.0,0.0,0.0,0.0,0.0,0.0,0.0,0.0,-1.78189453125,6.0689794921875,-3.2236962890625,0.0,0.0,0.0,0.0,0.0,0.0,0.0,0.0,0.0
1455208573.761885,5938,1455208573,751928599,base_link,0.0,0.0,0.0,0.0,-1.0,0.0,0.0,0.0,0.0,0.0,0.0,0.0,0.0,-0.09054746874031569,-0.007456850532073217,0.9949569166745761,0.0,0.0,0.0,0.0,0.0,0.0,0.0,0.0,0.0,4.5649072265625,6.198310546875001,-1.9974462890625,0.0,0.0,0.0,0.0,0.0,0.0,0.0,0.0,0.0
1455208573.7619607,5940,1455208573,753926599,base_link,0.0,0.0,0.0,0.0,-1.0,0.0,0.0,0.0,0.0,0.0,0.0,0.0,0.0,-0.178964408608568,-0.17363810307316632,-0.346210941710301,0.0,0.0,0.0,0.0,0.0,0.0,0.0,0.0,0.0,2.251318359375,12.262500000000001,-1.5471826171875,0.0,0.0,0.0,0.0,0.0,0.0,0.0,0.0,0.0
1455208573.762035,5943,1455208573,756923599,base_link,0.0,0.0,0.0,0.0,-1.0,0.0,0.0,0.0,0.0,0.0,0.0,0.0,0.0,0.1832254663526948,0.044741102152142,-0.46232473194824214,0.0,0.0,0.0,0.0,0.0,0.0,0.0,0.0,0.0,-4.7804589843750005,3.6404296875,-4.243974609375,0.0,0.0,0.0,0.0,0.0,0.0,0.0,0.0,0.0
1455208573.7621005,5945,1455208573,758921599,base_link,0.0,0.0,0.0,0.0,-1.0,0.0,0.0,0.0,0.0,0.0,0.0,0.0,0.0,-0.2237055149218992,0.0,0.9406284304369597,0.0,0.0,0.0,0.0,0.0,0.0,0.0,0.0,0.0,2.7590625,8.746611328125,-2.1219873046875,0.0,0.0,0.0,0.0,0.0,0.0,0.0,0.0,0.0
1455208573.7621624,5946,1455208573,759920599,base_link,0.0,0.0,0.0,0.0,-1.0,0.0,0.0,0.0,0.0,0.0,0.0,0.0,0.0,-0.335558297349984,-0.06391586200071252,0.8266451357815683,0.0,0.0,0.0,0.0,0.0,0.0,0.0,0.0,0.0,5.010380859375,14.149775390625,-1.4418017578125,0.0,0.0,0.0,0.0,0.0,0.0,0.0,0.0,0.0
1455208573.7718573,5948,1455208573,761918599,base_link,0.0,0.0,0.0,0.0,-1.0,0.0,0.0,0.0,0.0,0.0,0.0,0.0,0.0,0.06178533312864912,-0.09374326204841077,-0.5486111512668095,0.0,0.0,0.0,0.0,0.0,0.0,0.0,0.0,0.0,0.39278320312500004,9.072333984375,-2.4333398437500002,0.0,0.0,0.0,0.0,0.0,0.0,0.0,0.0,0.0
1455208573.7719264,5950,1455208573,763916599,base_link,0.0,0.0,0.0,0.0,-1.0,0.0,0.0,0.0,0.0,0.0,0.0,0.0,0.0,0.10013484866460096,-0.0660463908727759,-0.6210491662064783,0.0,0.0,0.0,0.0,0.0,0.0,0.0,0.0,0.0,-3.8464013671875,3.0033544921875,-3.5446289062500003,0.0,0.0,0.0,0.0,0.0,0.0,0.0,0.0,0.0
1455208573.7719903,5952,1455208573,765914599,base_link,0.0,0.0,0.0,0.0,-1.0,0.0,0.0,0.0,0.0,0.0,0.0,0.0,0.0,-0.36218987496126276,-0.04154531300523611,0.46871631856443224,0.0,0.0,0.0,0.0,0.0,0.0,0.0,0.0,0.0,1.7771044921875,12.4588916015625,-1.9208056640625002,0.0,0.0,0.0,0.0,0.0,0.0,0.0,0.0,0.0
1455208573.7720752,5955,1455208573,768911599,base_link,0.0,0.0,0.0,0.0,-1.0,0.0,0.0,0.0,0.0,0.0,0.0,0.0,0.0,0.05113268876833217,-0.019174759848570515,-0.1555286076606275,0.0,0.0,0.0,0.0,0.0,0.0,0.0,0.0,0.0,0.6562353515625,4.009262695312501,-3.19974609375,0.0,0.0,0.0,0.0,0.0,0.0,0.0,0.0,0.0
1455208573.7721465,5956,1455208573,769910599,base_link,0.0,0.0,0.0,0.0,-1.0,0.0,0.0,0.0,0.0,0.0,0.0,0.0,0.0,0.052197953204363864,-0.07882956826634545,-0.4495415587158617,0.0,0.0,0.0,0.0,0.0,0.0,0.0,0.0,0.0,-1.3364208984375001,-0.22513183593750002,-4.473896484375,0.0,0.0,0.0,0.0,0.0,0.0,0.0,0.0,0.0
1455208573.7817209,5957,1455208573,770909599,base_link,0.0,0.0,0.0,0.0,-1.0,0.0,0.0,0.0,0.0,0.0,0.0,0.0,0.0,-0.11291802189698129,-0.1320927817455518,-0.4761731696166542,0.0,0.0,0.0,0.0,0.0,0.0,0.0,0.0,0.0,-2.1986279296875,5.5229150390625,-2.7638525390625,0.0,0.0,0.0,0.0,0.0,0.0,0.0,0.0,0.0
1455208573.7818027,5961,1455208573,774905599,base_link,0.0,0.0,0.0,0.0,-1.0,0.0,0.0,0.0,0.0,0.0,0.0,0.0,0.0,0.11398328633301298,0.017044229936209822,0.2460760680785648,0.0,0.0,0.0,0.0,0.0,0.0,0.0,0.0,0.0,0.5748046875,6.298901367187501,-3.094365234375,0.0,0.0,0.0,0.0,0.0,0.0,0.0,0.0,0.0
1455208573.7818885,5963,1455208573,776903599,base_link,0.0,0.0,0.0,0.0,-1.0,0.0,0.0,0.0,0.0,0.0,0.0,0.0,0.0,0.02982740212829287,-0.069242184180871,0.16085492984078598,0.0,0.0,0.0,0.0,0.0,0.0,0.0,0.0,0.0,2.308798828125,0.93884765625,-4.3254052734375,0.0,0.0,0.0,0.0,0.0,0.0,0.0,0.0,0.0
1455208573.7819476,5965,1455208573,778901599,base_link,0.0,0.0,0.0,0.0,-1.0,0.0,0.0,0.0,0.0,0.0,0.0,0.0,0.0,-0.17470336750919802,-0.10865696415285452,-0.2822950755483992,0.0,0.0,0.0,0.0,0.0,0.0,0.0,0.0,0.0,-0.910107421875,16.2717626953125,0.6035449218750001,0.0,0.0,0.0,0.0,0.0,0.0,0.0,0.0,0.0
1455208573.7820067,5966,1455208573,779900599,base_link,0.0,0.0,0.0,0.0,-1.0,0.0,0.0,0.0,0.0,0.0,0.0,0.0,0.0,-0.069242184180871,-0.09693905535650586,-0.518783747057922,0.0,0.0,0.0,0.0,0.0,0.0,0.0,0.0,0.0,-2.481240234375,15.524516601562501,-0.795146484375,0.0,0.0,0.0,0.0,0.0,0.0,0.0,0.0,0.0
1455208573.7918625,5969,1455208573,782897599,base_link,0.0,0.0,0.0,0.0,-1.0,0.0,0.0,0.0,0.0,0.0,0.0,0.0,0.0,0.07456851052221868,-0.034088459872419645,0.3589940816531677,0.0,0.0,0.0,0.0,0.0,0.0,0.0,0.0,0.0,1.47533203125,2.4477099609375,-4.7660888671875,0.0,0.0,0.0,0.0,0.0,0.0,0.0,0.0,0.0
1455208573.7919278,5971,1455208573,784895599,base_link,0.0,0.0,0.0,0.0,-1.0,0.0,0.0,0.0,0.0,0.0,0.0,0.0,0.0,-0.1352885750536469,0.007456850532073217,0.6562028925955242,0.0,0.0,0.0,0.0,0.0,0.0,0.0,0.0,0.0,4.34935546875,13.0528564453125,0.6849755859375001,0.0,0.0,0.0,0.0,0.0,0.0,0.0,0.0,0.0
1455208573.7919903,5974,1455208573,787892599,base_link,0.0,0.0,0.0,0.0,-1.0,0.0,0.0,0.0,0.0,0.0,0.0,0.0,0.0,-0.0671116553088076,-0.18109493748063138,-1.0705906916328265,0.0,0.0,0.0,0.0,0.0,0.0,0.0,0.0,0.0,-3.3003369140625,6.64857421875,-5.2498828125,0.0,0.0,0.0,0.0,0.0,0.0,0.0,0.0,0.0
1455208573.7920625,5976,1455208573,789890599,base_link,0.0,0.0,0.0,0.0,-1.0,0.0,0.0,0.0,0.0,0.0,0.0,0.0,0.0,-0.02663160882019778,-0.06817691974483929,-0.138484368361742,0.0,0.0,0.0,0.0,0.0,0.0,0.0,0.0,0.0,-3.477568359375,6.830595703125001,-3.2332763671875,0.0,0.0,0.0,0.0,0.0,0.0,0.0,0.0,0.0
1455208573.8016398,5977,1455208573,790889599,base_link,0.0,0.0,0.0,0.0,-1.0,0.0,0.0,0.0,0.0,0.0,0.0,0.0,0.0,-0.06178533312864912,0.034088459872419645,0.6519418348513975,0.0,0.0,0.0,0.0,0.0,0.0,0.0,0.0,0.0,0.29219238281250004,11.6062646484375,-0.1676513671875,0.0,0.0,0.0,0.0,0.0,0.0,0.0,0.0,0.0
1455208573.8017309,5981,1455208573,794885599,base_link,0.0,0.0,0.0,0.0,-1.0,0.0,0.0,0.0,0.0,0.0,0.0,0.0,0.0,-0.10865696415285452,-0.2183791927417407,-0.7978829960087125,0.0,0.0,0.0,0.0,0.0,0.0,0.0,0.0,0.0,-0.3496728515625,5.446274414062501,-4.96248046875,0.0,0.0,0.0,0.0,0.0,0.0,0.0,0.0,0.0
1455208573.8018296,5984,1455208573,797882599,base_link,0.0,0.0,0.0,0.0,-1.0,0.0,0.0,0.0,0.0,0.0,0.0,0.0,0.0,-0.04048004856920442,0.010652644360316953,0.034088459872419645,0.0,0.0,0.0,0.0,0.0,0.0,0.0,0.0,0.0,-1.9016455078125,10.973979492187501,-0.814306640625,0.0,0.0,0.0,0.0,0.0,0.0,0.0,0.0,0.0
1455208573.8018873,5986,1455208573,799880599,base_link,0.0,0.0,0.0,0.0,-1.0,0.0,0.0,0.0,0.0,0.0,0.0,0.0,0.0,-0.17363810307316632,0.05006742433230048,0.8223840780374414,0.0,0.0,0.0,0.0,0.0,0.0,0.0,0.0,0.0,3.3913476562500002,6.8593359375,-3.1662158203125004,0.0,0.0,0.0,0.0,0.0,0.0,0.0,0.0,0.0
1455208573.8117785,5988,1455208573,801878599,base_link,0.0,0.0,0.0,0.0,-1.0,0.0,0.0,0.0,0.0,0.0,0.0,0.0,0.0,-0.14274543442824716,-0.16618125202094444,-0.1992044328931702,0.0,0.0,0.0,0.0,0.0,0.0,0.0,0.0,0.0,1.6142431640625001,6.9599267578125,-2.9698242187500004,0.0,0.0,0.0,0.0,0.0,0.0,0.0,0.0,0.0
1455208573.8118815,5990,1455208573,803876599,base_link,0.0,0.0,0.0,0.0,-1.0,0.0,0.0,0.0,0.0,0.0,0.0,0.0,0.0,0.027696873256229475,-0.11611381520507637,-0.7382281875909376,0.0,0.0,0.0,0.0,0.0,0.0,0.0,0.0,0.0,-3.0704150390625,11.2709619140625,-0.43110351562500004,0.0,0.0,0.0,0.0,0.0,0.0,0.0,0.0,0.0
1455208573.8119528,5993,1455208573,806873599,base_link,0.0,0.0,0.0,0.0,-1.0,0.0,0.0,0.0,0.0,0.0,0.0,0.0,0.0,-0.06178533312864912,-0.0031957930480207607,0.4964131939012564,0.0,0.0,0.0,0.0,0.0,0.0,0.0,0.0,0.0,0.8957373046875,7.137158203125001,-4.009262695312501,0.0,0.0,0.0,0.0,0.0,0.0,0.0,0.0,0.0
1455208573.812022,5995,1455208573,808871599,base_link,0.0,0.0,0.0,0.0,-1.0,0.0,0.0,0.0,0.0,0.0,0.0,0.0,0.0,-0.02663160882019778,-0.12570119512936162,0.2918824554726845,0.0,0.0,0.0,0.0,0.0,0.0,0.0,0.0,0.0,3.4631982421875,7.290439453125001,-2.5674609375,0.0,0.0,0.0,0.0,0.0,0.0,0.0,0.0,0.0
1455208573.812098,5996,1455208573,809870599,base_link,0.0,0.0,0.0,0.0,-1.0,0.0,0.0,0.0,0.0,0.0,0.0,0.0,0.0,0.021305288720633905,-0.11611381520507637,-0.14594122773634224,0.0,0.0,0.0,0.0,0.0,0.0,0.0,0.0,0.0,1.7244140625000002,8.660390625,-1.07296875,0.0,0.0,0.0,0.0,0.0,0.0,0.0,0.0,0.0
1455208573.821597,5997,1455208573,810869599,base_link,0.0,0.0,0.0,0.0,-1.0,0.0,0.0,0.0,0.0,0.0,0.0,0.0,0.0,0.03302319543638795,-0.08309062601047222,-0.5241100692380805,0.0,0.0,0.0,0.0,0.0,0.0,0.0,0.0,0.0,-0.852626953125,11.093730468750001,-0.7424560546875001,0.0,0.0,0.0,0.0,0.0,0.0,0.0,0.0,0.0
1455208573.8216782,6000,1455208573,813866599,base_link,0.0,0.0,0.0,0.0,-1.0,0.0,0.0,0.0,0.0,0.0,0.0,0.0,0.0,-0.0671116553088076,-0.052197953204363864,0.07137271721412358,0.0,0.0,0.0,0.0,0.0,0.0,0.0,0.0,0.0,-1.74357421875,6.983876953125001,-4.3828857421875,0.0,0.0,0.0,0.0,0.0,0.0,0.0,0.0,0.0
1455208573.8217885,6004,1455208573,817862599,base_link,0.0,0.0,0.0,0.0,-1.0,0.0,0.0,0.0,0.0,0.0,0.0,0.0,0.0,-0.01810949541253882,-0.03195793100035626,-0.12463593069332993,0.0,0.0,0.0,0.0,0.0,0.0,0.0,0.0,0.0,1.28373046875,9.4603271484375,-1.4801220703125,0.0,0.0,0.0,0.0,0.0,0.0,0.0,0.0,0.0
1455208573.8218641,6006,1455208573,819860599,base_link,0.0,0.0,0.0,0.0,-1.0,0.0,0.0,0.0,0.0,0.0,0.0,0.0,0.0,-0.069242184180871,-0.10546117084475942,-0.5134574248777635,0.0,0.0,0.0,0.0,0.0,0.0,0.0,0.0,0.0,-3.3626074218750004,6.3563818359375,-3.5350488281250003,0.0,0.0,0.0,0.0,0.0,0.0,0.0,0.0,0.0
1455208573.8315656,6008,1455208573,821858599,base_link,0.0,0.0,0.0,0.0,-1.0,0.0,0.0,0.0,0.0,0.0,0.0,0.0,0.0,-0.22477077935793086,-0.1555286076606275,-0.11291802189698129,0.0,0.0,0.0,0.0,0.0,0.0,0.0,0.0,0.0,0.20597167968750002,10.638676757812501,-3.036884765625,0.0,0.0,0.0,0.0,0.0,0.0,0.0,0.0,0.0
1455208573.831632,6010,1455208573,823856599,base_link,0.0,0.0,0.0,0.0,-1.0,0.0,0.0,0.0,0.0,0.0,0.0,0.0,0.0,-0.02663160882019778,0.05432848207642726,0.44421523653570333,0.0,0.0,0.0,0.0,0.0,0.0,0.0,0.0,0.0,2.6536816406250003,10.950029296875,-0.6849755859375001,0.0,0.0,0.0,0.0,0.0,0.0,0.0,0.0,0.0
1455208573.8317375,6014,1455208573,827852599,base_link,0.0,0.0,0.0,0.0,-1.0,0.0,0.0,0.0,0.0,0.0,0.0,0.0,0.0,-0.24714133251459647,-0.25566344800285007,-0.7201186921783987,0.0,0.0,0.0,0.0,0.0,0.0,0.0,0.0,0.0,-1.8729052734375,12.6121728515625,-1.638193359375,0.0,0.0,0.0,0.0,0.0,0.0,0.0,0.0,0.0
1455208573.8318017,6016,1455208573,829850599,base_link,0.0,0.0,0.0,0.0,-1.0,0.0,0.0,0.0,0.0,0.0,0.0,0.0,0.0,0.021305288720633905,-0.04048004856920442,-0.3909520147341185,0.0,0.0,0.0,0.0,0.0,0.0,0.0,0.0,0.0,-3.3003369140625,10.7919580078125,-2.0980371093750003,0.0,0.0,0.0,0.0,0.0,0.0,0.0,0.0,0.0
1455208573.8416173,6019,1455208573,832847599,base_link,0.0,0.0,0.0,0.0,-1.0,0.0,0.0,0.0,0.0,0.0,0.0,0.0,0.0,-0.09054746874031569,0.017044229936209822,0.9353021082568013,0.0,0.0,0.0,0.0,0.0,0.0,0.0,0.0,0.0,4.665498046875,1.2885205078125002,-3.592529296875,0.0,0.0,0.0,0.0,0.0,0.0,0.0,0.0,0.0
1455208573.8416781,6022,1455208573,835844599,base_link,0.0,0.0,0.0,0.0,-1.0,0.0,0.0,0.0,0.0,0.0,0.0,0.0,0.0,-0.17044230976507124,-0.1917475818409483,-0.9470200170531498,0.0,0.0,0.0,0.0,0.0,0.0,0.0,0.0,0.0,-0.9915380859375,14.628779296875,-0.756826171875,0.0,0.0,0.0,0.0,0.0,0.0,0.0,0.0,0.0
1455208573.8417368,6025,1455208573,838841599,base_link,0.0,0.0,0.0,0.0,-1.0,0.0,0.0,0.0,0.0,0.0,0.0,0.0,0.0,0.02450107994813439,0.046871631024205385,0.2588592413109451,0.0,0.0,0.0,0.0,0.0,0.0,0.0,0.0,0.0,-1.149609375,1.3412109375,-4.608017578125001,0.0,0.0,0.0,0.0,0.0,0.0,0.0,0.0,0.0
1455208573.8417928,6026,1455208573,839840599,base_link,0.0,0.0,0.0,0.0,-1.0,0.0,0.0,0.0,0.0,0.0,0.0,0.0,0.0,-0.18109493748063138,-0.002130528742026228,0.876712564275058,0.0,0.0,0.0,0.0,0.0,0.0,0.0,0.0,0.0,2.4908203125,5.6091357421875,-2.442919921875,0.0,0.0,0.0,0.0,0.0,0.0,0.0,0.0,0.0
1455208573.8514204,6029,1455208573,842837599,base_link,0.0,0.0,0.0,0.0,-1.0,0.0,0.0,0.0,0.0,0.0,0.0,0.0,0.0,-0.0458063665881737,-0.1118527574609496,-0.44101944322760817,0.0,0.0,0.0,0.0,0.0,0.0,0.0,0.0,0.0,0.7472460937500001,11.0745703125,-0.7711962890625,0.0,0.0,0.0,0.0,0.0,0.0,0.0,0.0,0.0
1455208573.8514943,6031,1455208573,844835599,base_link,0.0,0.0,0.0,0.0,-1.0,0.0,0.0,0.0,0.0,0.0,0.0,0.0,0.0,0.1565938720966592,-0.0660463908727759,-0.8490156889382339,0.0,0.0,0.0,0.0,0.0,0.0,0.0,0.0,0.0,-3.9134619140625,6.2031005859375,-4.009262695312501,0.0,0.0,0.0,0.0,0.0,0.0,0.0,0.0,0.0
1455208573.8515742,6035,1455208573,848831599,base_link,0.0,0.0,0.0,0.0,-1.0,0.0,0.0,0.0,0.0,0.0,0.0,0.0,0.0,-0.089482204304284,-0.007456850532073217,0.5262405981101438,0.0,0.0,0.0,0.0,0.0,0.0,0.0,0.0,0.0,3.16142578125,15.3999755859375,-0.6753955078125,0.0,0.0,0.0,0.0,0.0,0.0,0.0,0.0,0.0
1455208573.8516445,6036,1455208573,849830599,base_link,0.0,0.0,0.0,0.0,-1.0,0.0,0.0,0.0,0.0,0.0,0.0,0.0,0.0,0.06285059756468081,-0.03089266656432456,-0.0458063665881737,0.0,0.0,0.0,0.0,0.0,0.0,0.0,0.0,0.0,1.5328125000000001,10.5907763671875,-2.6393115234375,0.0,0.0,0.0,0.0,0.0,0.0,0.0,0.0,0.0
1455208573.8614445,6039,1455208573,852828599,base_link,0.0,0.0,0.0,0.0,-1.0,0.0,0.0,0.0,0.0,0.0,0.0,0.0,0.0,-0.035153726389045944,-0.09374326204841077,-0.38029937037380157,0.0,0.0,0.0,0.0,0.0,0.0,0.0,0.0,0.0,-2.8883935546875,7.7790234375,-3.439248046875,0.0,0.0,0.0,0.0,0.0,0.0,0.0,0.0,0.0
1455208573.861511,6041,1455208573,854826599,base_link,0.0,0.0,0.0,0.0,-1.0,0.0,0.0,0.0,0.0,0.0,0.0,0.0,0.0,-0.26205503461904023,-0.011717907756051346,0.34514567727426926,0.0,0.0,0.0,0.0,0.0,0.0,0.0,0.0,0.0,0.871787109375,14.298266601562501,-1.2214599609375,0.0,0.0,0.0,0.0,0.0,0.0,0.0,0.0,0.0
1455208573.8615692,6044,1455208573,857823599,base_link,0.0,0.0,0.0,0.0,-1.0,0.0,0.0,0.0,0.0,0.0,0.0,0.0,0.0,-0.2024002262012653,-0.022370551076071,-0.07243798165015528,0.0,0.0,0.0,0.0,0.0,0.0,0.0,0.0,0.0,0.9915380859375,3.1518457031250002,-4.799619140625,0.0,0.0,0.0,0.0,0.0,0.0,0.0,0.0,0.0
1455208573.8616264,6046,1455208573,859821599,base_link,0.0,0.0,0.0,0.0,-1.0,0.0,0.0,0.0,0.0,0.0,0.0,0.0,0.0,-0.47936896292474923,-0.05006742433230048,-0.02982740212829287,0.0,0.0,0.0,0.0,0.0,0.0,0.0,0.0,0.0,-0.1293310546875,4.162543945312501,-2.0213964843750003,0.0,0.0,0.0,0.0,0.0,0.0,0.0,0.0,0.0
1455208573.8728325,6049,1455208573,862818599,base_link,0.0,0.0,0.0,0.0,-1.0,0.0,0.0,0.0,0.0,0.0,0.0,0.0,0.0,-0.4729773763085591,-0.08415589044650393,-0.3557982883450726,0.0,0.0,0.0,0.0,0.0,0.0,0.0,0.0,0.0,-2.069296875,13.0528564453125,-1.2310400390625,0.0,0.0,0.0,0.0,0.0,0.0,0.0,0.0,0.0
1455208573.8729336,6051,1455208573,864816599,base_link,0.0,0.0,0.0,0.0,-1.0,0.0,0.0,0.0,0.0,0.0,0.0,0.0,0.0,-0.12996225287348842,-0.011717907756051346,0.12889698843745673,0.0,0.0,0.0,0.0,0.0,0.0,0.0,0.0,0.0,-0.55564453125,1.839375,-3.4440380859375,0.0,0.0,0.0,0.0,0.0,0.0,0.0,0.0,0.0
1455208573.8730075,6054,1455208573,867813599,base_link,0.0,0.0,0.0,0.0,-1.0,0.0,0.0,0.0,0.0,0.0,0.0,0.0,0.0,-0.2908171910366528,-0.021305288720633905,0.46978158300046396,0.0,0.0,0.0,0.0,0.0,0.0,0.0,0.0,0.0,4.44515625,11.5008837890625,0.7664062500000001,0.0,0.0,0.0,0.0,0.0,0.0,0.0,0.0,0.0
1455208573.8730965,6056,1455208573,869811599,base_link,0.0,0.0,0.0,0.0,-1.0,0.0,0.0,0.0,0.0,0.0,0.0,0.0,0.0,0.04048004856920442,-0.16831178089300786,-0.8777778287110897,0.0,0.0,0.0,0.0,0.0,0.0,0.0,0.0,0.0,-2.0740869140625002,12.58822265625,-2.2848486328125,0.0,0.0,0.0,0.0,0.0,0.0,0.0,0.0,0.0
1455208573.8823953,6057,1455208573,870810599,base_link,0.0,0.0,0.0,0.0,-1.0,0.0,0.0,0.0,0.0,0.0,0.0,0.0,0.0,0.30892668644919163,-0.16192019427681767,-1.0258495853194953,0.0,0.0,0.0,0.0,0.0,0.0,0.0,0.0,0.0,-5.2355126953125,7.865244140625,-3.3817675781250003,0.0,0.0,0.0,0.0,0.0,0.0,0.0,0.0,0.0
1455208573.882492,6060,1455208573,873807599,base_link,0.0,0.0,0.0,0.0,-1.0,0.0,0.0,0.0,0.0,0.0,0.0,0.0,0.0,0.18748652409682154,0.05006742433230048,0.925714728332516,0.0,0.0,0.0,0.0,0.0,0.0,0.0,0.0,0.0,3.9853125,9.6183984375,-1.9782861328125,0.0,0.0,0.0,0.0,0.0,0.0,0.0,0.0,0.0
1455208573.882567,6064,1455208573,877803599,base_link,0.0,0.0,0.0,0.0,-1.0,0.0,0.0,0.0,0.0,0.0,0.0,0.0,0.0,0.14913702104443735,-0.18429073078872646,-1.068460162760763,0.0,0.0,0.0,0.0,0.0,0.0,0.0,0.0,0.0,-2.9841943359375,4.80919921875,-5.5708154296875,0.0,0.0,0.0,0.0,0.0,0.0,0.0,0.0,0.0
1455208573.8826253,6066,1455208573,879801599,base_link,0.0,0.0,0.0,0.0,-1.0,0.0,0.0,0.0,0.0,0.0,0.0,0.0,0.0,-0.10759169971682281,-0.09480852648444246,-0.5155879537498269,0.0,0.0,0.0,0.0,0.0,0.0,0.0,0.0,0.0,-4.4116259765625,9.8722705078125,-3.036884765625,0.0,0.0,0.0,0.0,0.0,0.0,0.0,0.0,0.0
1455208573.8923984,6069,1455208573,882798599,base_link,0.0,0.0,0.0,0.0,-1.0,0.0,0.0,0.0,0.0,0.0,0.0,0.0,0.0,-0.4271710055591962,0.06498112643674421,0.8287756646536317,0.0,0.0,0.0,0.0,0.0,0.0,0.0,0.0,0.0,2.960244140625,8.5023193359375,-2.222578125,0.0,0.0,0.0,0.0,0.0,0.0,0.0,0.0,0.0
1455208573.8926728,6075,1455208573,888792599,base_link,0.0,0.0,0.0,0.0,-1.0,0.0,0.0,0.0,0.0,0.0,0.0,0.0,0.0,-0.3302319751698255,0.07989483270237714,0.23861921702634295,0.0,0.0,0.0,0.0,0.0,0.0,0.0,0.0,0.0,-1.2502001953125002,10.44228515625,-0.15328125,0.0,0.0,0.0,0.0,0.0,0.0,0.0,0.0,0.0
1455208573.8927357,6076,1455208573,889791599,base_link,0.0,0.0,0.0,0.0,-1.0,0.0,0.0,0.0,0.0,0.0,0.0,0.0,0.0,-0.2609897701830085,0.04261057744126781,0.5986786130498127,0.0,0.0,0.0,0.0,0.0,0.0,0.0,0.0,0.0,1.6046630859375002,4.4068359375,-2.1028271484375,0.0,0.0,0.0,0.0,0.0,0.0,0.0,0.0,0.0
1455208573.9022906,6078,1455208573,891789599,base_link,0.0,0.0,0.0,0.0,-1.0,0.0,0.0,0.0,0.0,0.0,0.0,0.0,0.0,-0.20666128394539207,-0.10439590640872773,0.3312972396058572,0.0,0.0,0.0,0.0,0.0,0.0,0.0,0.0,0.0,3.9709423828125003,5.9156982421875,-2.29921875,0.0,0.0,0.0,0.0,0.0,0.0,0.0,0.0,0.0
1455208573.902365,6080,1455208573,893787599,base_link,0.0,0.0,0.0,0.0,-1.0,0.0,0.0,0.0,0.0,0.0,0.0,0.0,0.0,0.16831178089300786,-0.06285059756468081,-0.5006742516453832,0.0,0.0,0.0,0.0,0.0,0.0,0.0,0.0,0.0,-0.9627978515625001,14.6239892578125,1.43701171875,0.0,0.0,0.0,0.0,0.0,0.0,0.0,0.0,0.0
1455208573.9024353,6083,1455208573,896784599,base_link,0.0,0.0,0.0,0.0,-1.0,0.0,0.0,0.0,0.0,0.0,0.0,0.0,0.0,0.3281014462977621,-0.04900215989626878,0.05752427538452234,0.0,0.0,0.0,0.0,0.0,0.0,0.0,0.0,0.0,-1.1304492187500002,4.162543945312501,-5.604345703125,0.0,0.0,0.0,0.0,0.0,0.0,0.0,0.0,0.0
1455208573.902497,6085,1455208573,898782599,base_link,0.0,0.0,0.0,0.0,-1.0,0.0,0.0,0.0,0.0,0.0,0.0,0.0,0.0,0.2940129843447479,-0.07669903939428206,0.483630020668876,0.0,0.0,0.0,0.0,0.0,0.0,0.0,0.0,0.0,3.4679882812500002,12.770244140625001,-2.1459375,0.0,0.0,0.0,0.0,0.0,0.0,0.0,0.0,0.0
1455208573.9448667,6087,1455208573,900780599,base_link,0.0,0.0,0.0,0.0,-1.0,0.0,0.0,0.0,0.0,0.0,0.0,0.0,0.0,0.4601942030761787,0.013848436628114738,-0.03621899082507764,0.0,0.0,0.0,0.0,0.0,0.0,0.0,0.0,0.0,0.8238867187500001,8.4256787109375,-1.5471826171875,0.0,0.0,0.0,0.0,0.0,0.0,0.0,0.0,0.0
1455208573.9451342,6098,1455208573,911769599,base_link,0.0,0.0,0.0,0.0,-1.0,0.0,0.0,0.0,0.0,0.0,0.0,0.0,0.0,-0.4548678808960202,-0.1576591365326909,-0.6178533728983833,0.0,0.0,0.0,0.0,0.0,0.0,0.0,0.0,0.0,-2.845283203125,14.513818359375001,-0.22513183593750002,0.0,0.0,0.0,0.0,0.0,0.0,0.0,0.0,0.0
1455208573.945207,6102,1455208573,915765599,base_link,0.0,0.0,0.0,0.0,-1.0,0.0,0.0,0.0,0.0,0.0,0.0,0.0,0.0,-0.22050972161380408,-0.01810949541253882,0.757402947439508,0.0,0.0,0.0,0.0,0.0,0.0,0.0,0.0,0.0,3.8655615234375,5.0247509765625,-2.2752685546875,0.0,0.0,0.0,0.0,0.0,0.0,0.0,0.0,0.0
1455208573.945271,6104,1455208573,917763599,base_link,0.0,0.0,0.0,0.0,-1.0,0.0,0.0,0.0,0.0,0.0,0.0,0.0,0.0,-0.02024002428460221,-0.2002696973292019,-0.5784385887652105,0.0,0.0,0.0,0.0,0.0,0.0,0.0,0.0,0.0,-0.052690429687500005,14.0779248046875,0.229921875,0.0,0.0,0.0,0.0,0.0,0.0,0.0,0.0,0.0
1455208573.9453554,6107,1455208573,920760599,base_link,0.0,0.0,0.0,0.0,-1.0,0.0,0.0,0.0,0.0,0.0,0.0,0.0,0.0,0.4037351879664989,0.0884169398682523,-0.0458063665881737,0.0,0.0,0.0,0.0,0.0,0.0,0.0,0.0,0.0,-2.8931835937500003,4.555327148437501,-4.2870849609375,0.0,0.0,0.0,0.0,0.0,0.0,0.0,0.0,0.0
1455208573.9454174,6110,1455208573,923757599,base_link,0.0,0.0,0.0,0.0,-1.0,0.0,0.0,0.0,0.0,0.0,0.0,0.0,0.0,0.18642125966078985,-0.12783172400142503,0.6679208013918729,0.0,0.0,0.0,0.0,0.0,0.0,0.0,0.0,0.0,5.2259326171875005,11.6445849609375,-1.4513818359375001,0.0,0.0,0.0,0.0,0.0,0.0,0.0,0.0,0.0
1455208573.945479,6113,1455208573,926754599,base_link,0.0,0.0,0.0,0.0,-1.0,0.0,0.0,0.0,0.0,0.0,0.0,0.0,0.0,0.30146983539696975,-0.043675841877299504,-0.9033441751758503,0.0,0.0,0.0,0.0,0.0,0.0,0.0,0.0,0.0,-3.83203125,7.7407031250000005,-4.3014550781250005,0.0,0.0,0.0,0.0,0.0,0.0,0.0,0.0,0.0
1455208573.9455376,6116,1455208573,929751599,base_link,0.0,0.0,0.0,0.0,-1.0,0.0,0.0,0.0,0.0,0.0,0.0,0.0,0.0,-0.19281284627698003,-0.0458063665881737,0.7286408076666523,0.0,0.0,0.0,0.0,0.0,0.0,0.0,0.0,0.0,2.529140625,10.7440576171875,-2.442919921875,0.0,0.0,0.0,0.0,0.0,0.0,0.0,0.0,0.0
1455208573.9455984,6119,1455208573,932748599,base_link,0.0,0.0,0.0,0.0,-1.0,0.0,0.0,0.0,0.0,0.0,0.0,0.0,0.0,-0.07669903939428206,-0.06178533312864912,-0.40799624571062565,0.0,0.0,0.0,0.0,0.0,0.0,0.0,0.0,0.0,0.5604345703125,7.0078271484375,-3.017724609375,0.0,0.0,0.0,0.0,0.0,0.0,0.0,0.0,0.0
1455208573.9456575,6122,1455208573,935745599,base_link,0.0,0.0,0.0,0.0,-1.0,0.0,0.0,0.0,0.0,0.0,0.0,0.0,0.0,-0.357928817217136,-0.1118527574609496,-0.1768338797365046,0.0,0.0,0.0,0.0,0.0,0.0,0.0,0.0,0.0,-2.3040087890625003,12.4205712890625,-1.4130615234375001,0.0,0.0,0.0,0.0,0.0,0.0,0.0,0.0,0.0
1455208573.9457195,6125,1455208573,938742599,base_link,0.0,0.0,0.0,0.0,-1.0,0.0,0.0,0.0,0.0,0.0,0.0,0.0,0.0,-0.056459010948490644,0.034088459872419645,0.38775622142602345,0.0,0.0,0.0,0.0,0.0,0.0,0.0,0.0,0.0,1.6429833984375002,6.9120263671875,-2.24173828125,0.0,0.0,0.0,0.0,0.0,0.0,0.0,0.0,0.0
1455208573.9457784,6126,1455208573,939741599,base_link,0.0,0.0,0.0,0.0,-1.0,0.0,0.0,0.0,0.0,0.0,0.0,0.0,0.0,0.09054746874031569,0.017044229936209822,0.2077265483814238,0.0,0.0,0.0,0.0,0.0,0.0,0.0,0.0,0.0,0.5748046875,2.7925927734375002,-2.806962890625,0.0,0.0,0.0,0.0,0.0,0.0,0.0,0.0,0.0
1455208573.9887927,6128,1455208573,941739599,base_link,0.0,0.0,0.0,0.0,-1.0,0.0,0.0,0.0,0.0,0.0,0.0,0.0,0.0,-0.08522115488253562,-0.14274543442824716,-0.28336033998443094,0.0,0.0,0.0,0.0,0.0,0.0,0.0,0.0,0.0,-0.8669970703125001,10.490185546875,-1.0681787109375,0.0,0.0,0.0,0.0,0.0,0.0,0.0,0.0,0.0
1455208573.9888802,6132,1455208573,945735599,base_link,0.0,0.0,0.0,0.0,-1.0,0.0,0.0,0.0,0.0,0.0,0.0,0.0,0.0,0.3685814615774529,0.05326321764039556,0.3930825436061819,0.0,0.0,0.0,0.0,0.0,0.0,0.0,0.0,0.0,0.4550537109375,3.2045361328125,-3.9326220703125,0.0,0.0,0.0,0.0,0.0,0.0,0.0,0.0,0.0
1455208573.9889398,6135,1455208573,948732599,base_link,0.0,0.0,0.0,0.0,-1.0,0.0,0.0,0.0,0.0,0.0,0.0,0.0,0.0,-0.034088459872419645,-0.11398328633301298,0.01810949541253882,0.0,0.0,0.0,0.0,0.0,0.0,0.0,0.0,0.0,2.1986279296875,14.743740234375,-0.1149609375,0.0,0.0,0.0,0.0,0.0,0.0,0.0,0.0,0.0
1455208573.9889991,6138,1455208573,951729599,base_link,0.0,0.0,0.0,0.0,-1.0,0.0,0.0,0.0,0.0,0.0,0.0,0.0,0.0,0.31212247975728674,-0.03089266656432456,-0.5826996465093373,0.0,0.0,0.0,0.0,0.0,0.0,0.0,0.0,0.0,-3.3578173828125,3.3051269531250003,-5.8869580078125,0.0,0.0,0.0,0.0,0.0,0.0,0.0,0.0,0.0
1455208573.9890962,6143,1455208573,956724599,base_link,0.0,0.0,0.0,0.0,-1.0,0.0,0.0,0.0,0.0,0.0,0.0,0.0,0.0,0.04154531300523611,-0.11398328633301298,-0.40266992353046716,0.0,0.0,0.0,0.0,0.0,0.0,0.0,0.0,0.0,0.8047265625000001,10.7296875,-2.960244140625,0.0,0.0,0.0,0.0,0.0,0.0,0.0,0.0,0.0
1455208573.9891589,6146,1455208573,959721599,base_link,0.0,0.0,0.0,0.0,-1.0,0.0,0.0,0.0,0.0,0.0,0.0,0.0,0.0,-0.019174759848570515,-0.08309062601047222,-0.2918824554726845,0.0,0.0,0.0,0.0,0.0,0.0,0.0,0.0,0.0,-3.3578173828125,8.44962890625,-3.7027001953125,0.0,0.0,0.0,0.0,0.0,0.0,0.0,0.0,0.0
1455208573.989217,6149,1455208573,962718599,base_link,0.0,0.0,0.0,0.0,-1.0,0.0,0.0,0.0,0.0,0.0,0.0,0.0,0.0,-0.09800431979253756,0.02663160882019778,0.6838997679323483,0.0,0.0,0.0,0.0,0.0,0.0,0.0,0.0,0.0,4.4068359375,8.14306640625,-2.4908203125,0.0,0.0,0.0,0.0,0.0,0.0,0.0,0.0,0.0
1455208573.989276,6152,1455208573,965715599,base_link,0.0,0.0,0.0,0.0,-1.0,0.0,0.0,0.0,0.0,0.0,0.0,0.0,0.0,-0.10759169971682281,-0.1800296730445997,-0.8788430931471214,0.0,0.0,0.0,0.0,0.0,0.0,0.0,0.0,0.0,-3.515888671875,10.9643994140625,-2.1698876953125,0.0,0.0,0.0,0.0,0.0,0.0,0.0,0.0,0.0
1455208573.9893353,6155,1455208573,968712599,base_link,0.0,0.0,0.0,0.0,-1.0,0.0,0.0,0.0,0.0,0.0,0.0,0.0,0.0,-0.05113268876833217,0.10865696415285452,0.6583334214675877,0.0,0.0,0.0,0.0,0.0,0.0,0.0,0.0,0.0,1.5855029296875,7.520361328125,-2.12677734375,0.0,0.0,0.0,0.0,0.0,0.0,0.0,0.0,0.0
1455208573.989394,6158,1455208573,971709599,base_link,0.0,0.0,0.0,0.0,-1.0,0.0,0.0,0.0,0.0,0.0,0.0,0.0,0.0,-0.011717907756051346,-0.16724651645697614,-0.276968736723484,0.0,0.0,0.0,0.0,0.0,0.0,0.0,0.0,0.0,0.93884765625,10.585986328125001,-1.9734960937500001,0.0,0.0,0.0,0.0,0.0,0.0,0.0,0.0,0.0
1455208573.9894526,6161,1455208573,974706599,base_link,0.0,0.0,0.0,0.0,-1.0,0.0,0.0,0.0,0.0,0.0,0.0,0.0,0.0,0.25140239025872324,0.05965480425658574,-0.1800296730445997,0.0,0.0,0.0,0.0,0.0,0.0,0.0,0.0,0.0,-2.0836669921875,7.692802734375,-2.557880859375,0.0,0.0,0.0,0.0,0.0,0.0,0.0,0.0,0.0
1455208573.9895132,6164,1455208573,977703599,base_link,0.0,0.0,0.0,0.0,-1.0,0.0,0.0,0.0,0.0,0.0,0.0,0.0,0.0,0.12144013738523486,-0.11398328633301298,0.4868258139769711,0.0,0.0,0.0,0.0,0.0,0.0,0.0,0.0,0.0,3.6643798828125003,12.530742187500001,-2.9267138671875,0.0,0.0,0.0,0.0,0.0,0.0,0.0,0.0,0.0
1455208573.989587,6165,1455208573,978702599,base_link,0.0,0.0,0.0,0.0,-1.0,0.0,0.0,0.0,0.0,0.0,0.0,0.0,0.0,0.297208777652843,-0.08096009713840883,0.27803400115951565,0.0,0.0,0.0,0.0,0.0,0.0,0.0,0.0,0.0,3.400927734375,13.024116210937501,-0.316142578125,0.0,0.0,0.0,0.0,0.0,0.0,0.0,0.0,0.0
1455208573.9896555,6166,1455208573,979701599,base_link,0.0,0.0,0.0,0.0,-1.0,0.0,0.0,0.0,0.0,0.0,0.0,0.0,0.0,0.3888214858620551,-0.02663160882019778,-0.08096009713840883,0.0,0.0,0.0,0.0,0.0,0.0,0.0,0.0,0.0,1.1831396484375,9.321416015625001,-0.01916015625,0.0,0.0,0.0,0.0,0.0,0.0,0.0,0.0,0.0
1455208573.9920568,6168,1455208573,981699599,base_link,0.0,0.0,0.0,0.0,-1.0,0.0,0.0,0.0,0.0,0.0,0.0,0.0,0.0,0.02982740212829287,-0.03089266656432456,-0.6253102239506052,0.0,0.0,0.0,0.0,0.0,0.0,0.0,0.0,0.0,-2.222578125,7.601791992187501,-5.326523437500001,0.0,0.0,0.0,0.0,0.0,0.0,0.0,0.0,0.0
1455208573.9921315,6172,1455208573,985695599,base_link,0.0,0.0,0.0,0.0,-1.0,0.0,0.0,0.0,0.0,0.0,0.0,0.0,0.0,0.10439590640872773,0.017044229936209822,0.605070199666003,0.0,0.0,0.0,0.0,0.0,0.0,0.0,0.0,0.0,3.83203125,9.8435302734375,-0.4167333984375,0.0,0.0,0.0,0.0,0.0,0.0,0.0,0.0,0.0
1455208573.992199,6173,1455208573,986694599,base_link,0.0,0.0,0.0,0.0,-1.0,0.0,0.0,0.0,0.0,0.0,0.0,0.0,0.0,0.02982740212829287,0.03834951969714103,0.3568635527811043,0.0,0.0,0.0,0.0,0.0,0.0,0.0,0.0,0.0,3.6164794921875,6.9982470703125,-0.9867480468750001,0.0,0.0,0.0,0.0,0.0,0.0,0.0,0.0,0.0
1455208573.992258,6175,1455208573,988692599,base_link,0.0,0.0,0.0,0.0,-1.0,0.0,0.0,0.0,0.0,0.0,0.0,0.0,0.0,-0.276968736723484,-0.12037487294920317,-0.6423544549271123,0.0,0.0,0.0,0.0,0.0,0.0,0.0,0.0,0.0,-2.3471191406250003,8.363408203125001,-5.19240234375,0.0,0.0,0.0,0.0,0.0,0.0,0.0,0.0,0.0
1455208573.992316,6176,1455208573,989691599,base_link,0.0,0.0,0.0,0.0,-1.0,0.0,0.0,0.0,0.0,0.0,0.0,0.0,0.0,-0.2631202990550719,-0.19494337514904342,-0.8042745826249026,0.0,0.0,0.0,0.0,0.0,0.0,0.0,0.0,0.0,-4.00447265625,11.3092822265625,-4.196074218750001,0.0,0.0,0.0,0.0,0.0,0.0,0.0,0.0,0.0
1455208574.002162,6179,1455208573,992688599,base_link,0.0,0.0,0.0,0.0,-1.0,0.0,0.0,0.0,0.0,0.0,0.0,0.0,0.0,-0.03089266656432456,0.08309062601047222,0.6125270507182248,0.0,0.0,0.0,0.0,0.0,0.0,0.0,0.0,0.0,2.70158203125,8.3011376953125,-0.55564453125,0.0,0.0,0.0,0.0,0.0,0.0,0.0,0.0,0.0
1455208574.0022492,6181,1455208573,994686599,base_link,0.0,0.0,0.0,0.0,-1.0,0.0,0.0,0.0,0.0,0.0,0.0,0.0,0.0,-0.12570119512936162,0.03834951969714103,0.4921521361571296,0.0,0.0,0.0,0.0,0.0,0.0,0.0,0.0,0.0,2.39501953125,6.045029296875001,-3.439248046875,0.0,0.0,0.0,0.0,0.0,0.0,0.0,0.0,0.0
1455208574.002325,6184,1455208573,997684599,base_link,0.0,0.0,0.0,0.0,-1.0,0.0,0.0,0.0,0.0,0.0,0.0,0.0,0.0,0.08096009713840883,-0.16724651645697614,-0.9289105216406109,0.0,0.0,0.0,0.0,0.0,0.0,0.0,0.0,0.0,-2.7446923828125,13.809682617187502,-0.7328759765625,0.0,0.0,0.0,0.0,0.0,0.0,0.0,0.0,0.0
1455208574.0023901,6186,1455208573,999682599,base_link,0.0,0.0,0.0,0.0,-1.0,0.0,0.0,0.0,0.0,0.0,0.0,0.0,0.0,0.2908171910366528,0.14381069886427886,0.2705771501072938,0.0,0.0,0.0,0.0,0.0,0.0,0.0,0.0,0.0,-1.6142431640625001,8.2340771484375,-2.6776318359375,0.0,0.0,0.0,0.0,0.0,0.0,0.0,0.0,0.0
1455208574.0121434,6189,1455208574,2679599,base_link,0.0,0.0,0.0,0.0,-1.0,0.0,0.0,0.0,0.0,0.0,0.0,0.0,0.0,0.11717907964110806,-0.1778991441725363,0.276968736723484,0.0,0.0,0.0,0.0,0.0,0.0,0.0,0.0,0.0,4.2200244140625,9.273515625,-3.554208984375,0.0,0.0,0.0,0.0,0.0,0.0,0.0,0.0,0.0
1455208574.0122316,6191,1455208574,4677599,base_link,0.0,0.0,0.0,0.0,-1.0,0.0,0.0,0.0,0.0,0.0,0.0,0.0,0.0,0.23116236597412107,-0.09480852648444246,-0.8852346797633115,0.0,0.0,0.0,0.0,0.0,0.0,0.0,0.0,0.0,-2.519560546875,14.935341796875,-0.4646337890625,0.0,0.0,0.0,0.0,0.0,0.0,0.0,0.0,0.0
1455208574.012293,6194,1455208574,7674599,base_link,0.0,0.0,0.0,0.0,-1.0,0.0,0.0,0.0,0.0,0.0,0.0,0.0,0.0,0.02450107994813439,0.03089266656432456,0.6029396707939395,0.0,0.0,0.0,0.0,0.0,0.0,0.0,0.0,0.0,0.7711962890625,4.2008642578125,-6.466552734375,0.0,0.0,0.0,0.0,0.0,0.0,0.0,0.0,0.0
1455208574.0123525,6196,1455208574,9672599,base_link,0.0,0.0,0.0,0.0,-1.0,0.0,0.0,0.0,0.0,0.0,0.0,0.0,0.0,-0.2002696973292019,-0.1320927817455518,0.5230448048020487,0.0,0.0,0.0,0.0,0.0,0.0,0.0,0.0,0.0,5.5564453125,16.3100830078125,-0.814306640625,0.0,0.0,0.0,0.0,0.0,0.0,0.0,0.0,0.0
1455208574.0218883,6197,1455208574,10671599,base_link,0.0,0.0,0.0,0.0,-1.0,0.0,0.0,0.0,0.0,0.0,0.0,0.0,0.0,-0.07882956826634545,-0.08628641931856731,-0.15126754991650074,0.0,0.0,0.0,0.0,0.0,0.0,0.0,0.0,0.0,2.6441015625,12.7079736328125,-0.335302734375,0.0,0.0,0.0,0.0,0.0,0.0,0.0,0.0,0.0
1455208574.0219676,6200,1455208574,13668599,base_link,0.0,0.0,0.0,0.0,-1.0,0.0,0.0,0.0,0.0,0.0,0.0,0.0,0.0,-0.241815010334438,-0.043675841877299504,-0.43888891435554483,0.0,0.0,0.0,0.0,0.0,0.0,0.0,0.0,0.0,-3.7314404296875003,5.431904296875,-5.6761962890625,0.0,0.0,0.0,0.0,0.0,0.0,0.0,0.0,0.0
1455208574.0220337,6202,1455208574,15666599,base_link,0.0,0.0,0.0,0.0,-1.0,0.0,0.0,0.0,0.0,0.0,0.0,0.0,0.0,-0.357928817217136,-0.04900215989626878,0.5826996465093373,0.0,0.0,0.0,0.0,0.0,0.0,0.0,0.0,0.0,2.212998046875,17.99138671875,0.239501953125,0.0,0.0,0.0,0.0,0.0,0.0,0.0,0.0,0.0
1455208574.0221198,6205,1455208574,18663599,base_link,0.0,0.0,0.0,0.0,-1.0,0.0,0.0,0.0,0.0,0.0,0.0,0.0,0.0,0.007456850532073217,-0.022370551076071,-0.22477077935793086,0.0,0.0,0.0,0.0,0.0,0.0,0.0,0.0,0.0,0.24908203125,-0.258662109375,-4.914580078125001,0.0,0.0,0.0,0.0,0.0,0.0,0.0,0.0,0.0
1455208574.0221815,6206,1455208574,19662599,base_link,0.0,0.0,0.0,0.0,-1.0,0.0,0.0,0.0,0.0,0.0,0.0,0.0,0.0,-0.1107874930249179,-0.1118527574609496,-0.5454153579587143,0.0,0.0,0.0,0.0,0.0,0.0,0.0,0.0,0.0,-2.2704785156250002,6.504873046875001,-3.975732421875,0.0,0.0,0.0,0.0,0.0,0.0,0.0,0.0,0.0
1455208574.031807,6208,1455208574,21660599,base_link,0.0,0.0,0.0,0.0,-1.0,0.0,0.0,0.0,0.0,0.0,0.0,0.0,0.0,-0.0671116553088076,-0.11611381520507637,-0.32170985968157195,0.0,0.0,0.0,0.0,0.0,0.0,0.0,0.0,0.0,-2.6872119140625,18.8583837890625,0.4981640625,0.0,0.0,0.0,0.0,0.0,0.0,0.0,0.0,0.0
1455208574.0318842,6210,1455208574,23658599,base_link,0.0,0.0,0.0,0.0,-1.0,0.0,0.0,0.0,0.0,0.0,0.0,0.0,0.0,0.24714133251459647,0.05858953982055403,0.3568635527811043,0.0,0.0,0.0,0.0,0.0,0.0,0.0,0.0,0.0,1.8729052734375,4.905,-3.6260595703125,0.0,0.0,0.0,0.0,0.0,0.0,0.0,0.0,0.0
1455208574.0320008,6214,1455208574,27654599,base_link,0.0,0.0,0.0,0.0,-1.0,0.0,0.0,0.0,0.0,0.0,0.0,0.0,0.0,0.03302319543638795,-0.12783172400142503,-0.3760383126296748,0.0,0.0,0.0,0.0,0.0,0.0,0.0,0.0,0.0,-0.6274951171875001,17.387841796875,0.36404296875000003,0.0,0.0,0.0,0.0,0.0,0.0,0.0,0.0,0.0
1455208574.032108,6216,1455208574,29652599,base_link,0.0,0.0,0.0,0.0,-1.0,0.0,0.0,0.0,0.0,0.0,0.0,0.0,0.0,0.12463593069332993,-0.02663160882019778,-0.6274407528226685,0.0,0.0,0.0,0.0,0.0,0.0,0.0,0.0,0.0,-2.768642578125,6.5767236328125005,-4.847519531250001,0.0,0.0,0.0,0.0,0.0,0.0,0.0,0.0,0.0
1455208574.04193,6217,1455208574,30651599,base_link,0.0,0.0,0.0,0.0,-1.0,0.0,0.0,0.0,0.0,0.0,0.0,0.0,0.0,0.07989483270237714,0.017044229936209822,-0.2024002262012653,0.0,0.0,0.0,0.0,0.0,0.0,0.0,0.0,0.0,-2.0645068359375003,3.1374755859375,-6.792275390625,0.0,0.0,0.0,0.0,0.0,0.0,0.0,0.0,0.0
1455208574.0420616,6223,1455208574,36645599,base_link,0.0,0.0,0.0,0.0,-1.0,0.0,0.0,0.0,0.0,0.0,0.0,0.0,0.0,-0.14807175660840563,-0.13635383948967858,-1.0524811962202876,0.0,0.0,0.0,0.0,0.0,0.0,0.0,0.0,0.0,-3.1278955078125,7.711962890625,-5.7384667968750005,0.0,0.0,0.0,0.0,0.0,0.0,0.0,0.0,0.0
1455208574.0421293,6225,1455208574,38643599,base_link,0.0,0.0,0.0,0.0,-1.0,0.0,0.0,0.0,0.0,0.0,0.0,0.0,0.0,-0.069242184180871,-0.009587379924285258,0.039414784133172724,0.0,0.0,0.0,0.0,0.0,0.0,0.0,0.0,0.0,-3.3482373046875002,9.4890673828125,-2.8213330078125,0.0,0.0,0.0,0.0,0.0,0.0,0.0,0.0,0.0
1455208574.0421898,6226,1455208574,39642599,base_link,0.0,0.0,0.0,0.0,-1.0,0.0,0.0,0.0,0.0,0.0,0.0,0.0,0.0,-0.08202536157444053,0.03621899082507764,0.7637945340556982,0.0,0.0,0.0,0.0,0.0,0.0,0.0,0.0,0.0,1.005908203125,11.7403857421875,0.239501953125,0.0,0.0,0.0,0.0,0.0,0.0,0.0,0.0,0.0
1455208574.0517492,6227,1455208574,40641599,base_link,0.0,0.0,0.0,0.0,-1.0,0.0,0.0,0.0,0.0,0.0,0.0,0.0,0.0,-0.14913702104443735,0.03302319543638795,0.9374326371288645,0.0,0.0,0.0,0.0,0.0,0.0,0.0,0.0,0.0,4.8427294921875,11.160791015625001,-0.4981640625,0.0,0.0,0.0,0.0,0.0,0.0,0.0,0.0,0.0
1455208574.0518193,6230,1455208574,43638599,base_link,0.0,0.0,0.0,0.0,-1.0,0.0,0.0,0.0,0.0,0.0,0.0,0.0,0.0,-0.022370551076071,-0.1768338797365046,-0.8681904487868044,0.0,0.0,0.0,0.0,0.0,0.0,0.0,0.0,0.0,-2.1028271484375,9.02443359375,-3.9613623046875004,0.0,0.0,0.0,0.0,0.0,0.0,0.0,0.0,0.0
1455208574.0518796,6232,1455208574,45636599,base_link,0.0,0.0,0.0,0.0,-1.0,0.0,0.0,0.0,0.0,0.0,0.0,0.0,0.0,0.089482204304284,-0.05326321764039556,-0.31212247975728674,0.0,0.0,0.0,0.0,0.0,0.0,0.0,0.0,0.0,-2.529140625,11.2997021484375,-0.7472460937500001,0.0,0.0,0.0,0.0,0.0,0.0,0.0,0.0,0.0
1455208574.0519373,6235,1455208574,48633599,base_link,0.0,0.0,0.0,0.0,-1.0,0.0,0.0,0.0,0.0,0.0,0.0,0.0,0.0,-0.10333064197269604,0.022370551076071,0.5613943577887034,0.0,0.0,0.0,0.0,0.0,0.0,0.0,0.0,0.0,2.62494140625,6.68689453125,-4.50263671875,0.0,0.0,0.0,0.0,0.0,0.0,0.0,0.0,0.0
1455208574.0519943,6236,1455208574,49632599,base_link,0.0,0.0,0.0,0.0,-1.0,0.0,0.0,0.0,0.0,0.0,0.0,0.0,0.0,-0.014913701064146434,-0.10226537753666434,-0.011717907756051346,0.0,0.0,0.0,0.0,0.0,0.0,0.0,0.0,0.0,1.37953125,5.5516552734375,-4.9289501953125,0.0,0.0,0.0,0.0,0.0,0.0,0.0,0.0,0.0
1455208574.061671,6237,1455208574,50631599,base_link,0.0,0.0,0.0,0.0,-1.0,0.0,0.0,0.0,0.0,0.0,0.0,0.0,0.0,0.05965480425658574,-0.18109493748063138,-0.5667206799688619,0.0,0.0,0.0,0.0,0.0,0.0,0.0,0.0,0.0,-1.0969189453125001,8.6987109375,-3.0895751953125004,0.0,0.0,0.0,0.0,0.0,0.0,0.0,0.0,0.0
1455208574.061799,6241,1455208574,54627599,base_link,0.0,0.0,0.0,0.0,-1.0,0.0,0.0,0.0,0.0,0.0,0.0,0.0,0.0,-0.05006742433230048,0.07137271721412358,0.5091963671336367,0.0,0.0,0.0,0.0,0.0,0.0,0.0,0.0,0.0,0.162861328125,6.581513671875,-5.03912109375,0.0,0.0,0.0,0.0,0.0,0.0,0.0,0.0,0.0
1455208574.0619073,6245,1455208574,58623599,base_link,0.0,0.0,0.0,0.0,-1.0,0.0,0.0,0.0,0.0,0.0,0.0,0.0,0.0,0.008522114968104911,-0.0660463908727759,-0.39734360135030866,0.0,0.0,0.0,0.0,0.0,0.0,0.0,0.0,0.0,-0.4263134765625,13.000166015625,0.38320312500000003,0.0,0.0,0.0,0.0,0.0,0.0,0.0,0.0,0.0
1455208574.0619695,6246,1455208574,59622599,base_link,0.0,0.0,0.0,0.0,-1.0,0.0,0.0,0.0,0.0,0.0,0.0,0.0,0.0,-0.0031957930480207607,0.013848436628114738,-0.5379585069064925,0.0,0.0,0.0,0.0,0.0,0.0,0.0,0.0,0.0,-2.941083984375,11.611054687500001,-0.871787109375,0.0,0.0,0.0,0.0,0.0,0.0,0.0,0.0,0.0
1455208574.0719395,6248,1455208574,61620599,base_link,0.0,0.0,0.0,0.0,-1.0,0.0,0.0,0.0,0.0,0.0,0.0,0.0,0.0,-0.15233281435253243,-0.035153726389045944,0.021305288720633905,0.0,0.0,0.0,0.0,0.0,0.0,0.0,0.0,0.0,-1.3555810546875,4.914580078125001,-6.883286132812501,0.0,0.0,0.0,0.0,0.0,0.0,0.0,0.0,0.0
1455208574.0720108,6251,1455208574,64617599,base_link,0.0,0.0,0.0,0.0,-1.0,0.0,0.0,0.0,0.0,0.0,0.0,0.0,0.0,0.023435815512102692,-0.012783172192083043,0.3685814615774529,0.0,0.0,0.0,0.0,0.0,0.0,0.0,0.0,0.0,3.5398388671875,14.231206054687501,1.1160791015625,0.0,0.0,0.0,0.0,0.0,0.0,0.0,0.0,0.0
1455208574.072088,6253,1455208574,66615599,base_link,0.0,0.0,0.0,0.0,-1.0,0.0,0.0,0.0,0.0,0.0,0.0,0.0,0.0,0.02024002428460221,-0.0031957930480207607,-0.4218446833790377,0.0,0.0,0.0,0.0,0.0,0.0,0.0,0.0,0.0,-1.82021484375,4.076323242187501,-3.50630859375,0.0,0.0,0.0,0.0,0.0,0.0,0.0,0.0,0.0
1455208574.0721614,6255,1455208574,68613599,base_link,0.0,0.0,0.0,0.0,-1.0,0.0,0.0,0.0,0.0,0.0,0.0,0.0,0.0,-0.2908171910366528,-0.1960086395850751,-0.5262405981101438,0.0,0.0,0.0,0.0,0.0,0.0,0.0,0.0,0.0,-2.222578125,11.026669921875001,-5.7145166015625,0.0,0.0,0.0,0.0,0.0,0.0,0.0,0.0,0.0
1455208574.0722306,6256,1455208574,69612599,base_link,0.0,0.0,0.0,0.0,-1.0,0.0,0.0,0.0,0.0,0.0,0.0,0.0,0.0,-0.2077265483814238,-0.14594122773634224,-0.09800431979253756,0.0,0.0,0.0,0.0,0.0,0.0,0.0,0.0,0.0,-0.7424560546875001,16.4825244140625,-2.040556640625,0.0,0.0,0.0,0.0,0.0,0.0,0.0,0.0,0.0
1455208574.0816612,6258,1455208574,71610599,base_link,0.0,0.0,0.0,0.0,-1.0,0.0,0.0,0.0,0.0,0.0,0.0,0.0,0.0,0.16937704532903955,0.09480852648444246,0.6391586616190171,0.0,0.0,0.0,0.0,0.0,0.0,0.0,0.0,0.0,3.23806640625,6.9982470703125,-0.316142578125,0.0,0.0,0.0,0.0,0.0,0.0,0.0,0.0,0.0
1455208574.0817435,6260,1455208574,73608599,base_link,0.0,0.0,0.0,0.0,-1.0,0.0,0.0,0.0,0.0,0.0,0.0,0.0,0.0,-0.1800296730445997,-0.07137271721412358,-0.009587379924285258,0.0,0.0,0.0,0.0,0.0,0.0,0.0,0.0,0.0,1.2502001953125002,2.8165429687500003,-5.853427734375,0.0,0.0,0.0,0.0,0.0,0.0,0.0,0.0,0.0
1455208574.0818176,6264,1455208574,77604599,base_link,0.0,0.0,0.0,0.0,-1.0,0.0,0.0,0.0,0.0,0.0,0.0,0.0,0.0,0.2002696973292019,0.046871631024205385,-0.05113268876833217,0.0,0.0,0.0,0.0,0.0,0.0,0.0,0.0,0.0,-1.39869140625,6.6629443359375005,-1.7627343750000002,0.0,0.0,0.0,0.0,0.0,0.0,0.0,0.0,0.0
1455208574.0818899,6266,1455208574,79602599,base_link,0.0,0.0,0.0,0.0,-1.0,0.0,0.0,0.0,0.0,0.0,0.0,0.0,0.0,-0.1107874930249179,0.04793689546023708,0.8713862420948995,0.0,0.0,0.0,0.0,0.0,0.0,0.0,0.0,0.0,2.3375390625000003,3.2428564453125,-5.5851855468750005,0.0,0.0,0.0,0.0,0.0,0.0,0.0,0.0,0.0
1455208574.09159,6268,1455208574,81600599,base_link,0.0,0.0,0.0,0.0,-1.0,0.0,0.0,0.0,0.0,0.0,0.0,0.0,0.0,-0.24074974589840634,-0.2183791927417407,-0.1778991441725363,0.0,0.0,0.0,0.0,0.0,0.0,0.0,0.0,0.0,2.0980371093750003,16.290922851562502,-0.9436376953125001,0.0,0.0,0.0,0.0,0.0,0.0,0.0,0.0,0.0
1455208574.0916588,6270,1455208574,83598599,base_link,0.0,0.0,0.0,0.0,-1.0,0.0,0.0,0.0,0.0,0.0,0.0,0.0,0.0,0.12357066625729823,-0.07563377495825037,-0.9502158103612449,0.0,0.0,0.0,0.0,0.0,0.0,0.0,0.0,0.0,-3.4536181640625,8.746611328125,-1.4897021484375002,0.0,0.0,0.0,0.0,0.0,0.0,0.0,0.0,0.0
1455208574.0917192,6272,1455208574,85596599,base_link,0.0,0.0,0.0,0.0,-1.0,0.0,0.0,0.0,0.0,0.0,0.0,0.0,0.0,-0.09587379092047416,0.07563377495825037,0.2716424145433255,0.0,0.0,0.0,0.0,0.0,0.0,0.0,0.0,0.0,-1.7004638671875,3.6643798828125003,-6.351591796875001,0.0,0.0,0.0,0.0,0.0,0.0,0.0,0.0,0.0
1455208574.0917776,6275,1455208574,88593599,base_link,0.0,0.0,0.0,0.0,-1.0,0.0,0.0,0.0,0.0,0.0,0.0,0.0,0.0,-0.0884169398682523,-0.1320927817455518,0.3025350998330015,0.0,0.0,0.0,0.0,0.0,0.0,0.0,0.0,0.0,4.6607080078125005,12.866044921875,-0.009580078125,0.0,0.0,0.0,0.0,0.0,0.0,0.0,0.0,0.0
1455208574.0918324,6276,1455208574,89592599,base_link,0.0,0.0,0.0,0.0,-1.0,0.0,0.0,0.0,0.0,0.0,0.0,0.0,0.0,0.02450107994813439,-0.12463593069332993,-0.4772384340526859,0.0,0.0,0.0,0.0,0.0,0.0,0.0,0.0,0.0,1.2310400390625,6.7012646484375,-1.7866845703125,0.0,0.0,0.0,0.0,0.0,0.0,0.0,0.0,0.0
1455208574.1015275,6278,1455208574,91590599,base_link,0.0,0.0,0.0,0.0,-1.0,0.0,0.0,0.0,0.0,0.0,0.0,0.0,0.0,-0.1107874930249179,-0.04900215989626878,-0.8543420111183924,0.0,0.0,0.0,0.0,0.0,0.0,0.0,0.0,0.0,-5.0534912109375005,6.34201171875,-5.451064453125,0.0,0.0,0.0,0.0,0.0,0.0,0.0,0.0,0.0
1455208574.1015942,6280,1455208574,93588599,base_link,0.0,0.0,0.0,0.0,-1.0,0.0,0.0,0.0,0.0,0.0,0.0,0.0,0.0,-0.20133496176523358,-0.02663160882019778,0.5635248866607667,0.0,0.0,0.0,0.0,0.0,0.0,0.0,0.0,0.0,-0.09101074218750001,13.9869140625,-1.561552734375,0.0,0.0,0.0,0.0,0.0,0.0,0.0,0.0,0.0
1455208574.101658,6282,1455208574,95586599,base_link,0.0,0.0,0.0,0.0,-1.0,0.0,0.0,0.0,0.0,0.0,0.0,0.0,0.0,-0.10333064197269604,-0.04793689546023708,0.5550027378829996,0.0,0.0,0.0,0.0,0.0,0.0,0.0,0.0,0.0,5.6953564453125,9.1154443359375,-1.8010546875000002,0.0,0.0,0.0,0.0,0.0,0.0,0.0,0.0,0.0
1455208574.1017158,6285,1455208574,98583599,base_link,0.0,0.0,0.0,0.0,-1.0,0.0,0.0,0.0,0.0,0.0,0.0,0.0,0.0,-0.10865696415285452,-0.13635383948967858,-0.7531418896953813,0.0,0.0,0.0,0.0,0.0,0.0,0.0,0.0,0.0,-4.0619531250000005,9.90580078125,-2.8309130859375,0.0,0.0,0.0,0.0,0.0,0.0,0.0,0.0,0.0
1455208574.1017804,6286,1455208574,99582599,base_link,0.0,0.0,0.0,0.0,-1.0,0.0,0.0,0.0,0.0,0.0,0.0,0.0,0.0,-0.14168016999221547,-0.12889698843745673,-0.46978158300046396,0.0,0.0,0.0,0.0,0.0,0.0,0.0,0.0,0.0,-3.73623046875,15.031142578125001,-0.8478369140625001,0.0,0.0,0.0,0.0,0.0,0.0,0.0,0.0,0.0
1455208574.111486,6288,1455208574,101580599,base_link,0.0,0.0,0.0,0.0,-1.0,0.0,0.0,0.0,0.0,0.0,0.0,0.0,0.0,-0.1778991441725363,-0.034088459872419645,0.3206445952455403,0.0,0.0,0.0,0.0,0.0,0.0,0.0,0.0,0.0,2.711162109375,9.881850585937501,-2.4141796875000003,0.0,0.0,0.0,0.0,0.0,0.0,0.0,0.0,0.0
1455208574.1115565,6289,1455208574,102579599,base_link,0.0,0.0,0.0,0.0,-1.0,0.0,0.0,0.0,0.0,0.0,0.0,0.0,0.0,-0.1374191039257103,-0.001065264371013114,0.4058657168385623,0.0,0.0,0.0,0.0,0.0,0.0,0.0,0.0,0.0,3.7074902343750002,6.715634765625,-3.7697607421875,0.0,0.0,0.0,0.0,0.0,0.0,0.0,0.0,0.0
1455208574.1116168,6292,1455208574,105576599,base_link,0.0,0.0,0.0,0.0,-1.0,0.0,0.0,0.0,0.0,0.0,0.0,0.0,0.0,-0.11930960851317148,-0.14381069886427886,-0.3376888262220474,0.0,0.0,0.0,0.0,0.0,0.0,0.0,0.0,0.0,-0.7232958984375001,12.367880859375001,-1.0106982421875002,0.0,0.0,0.0,0.0,0.0,0.0,0.0,0.0,0.0
1455208574.1116743,6295,1455208574,108573599,base_link,0.0,0.0,0.0,0.0,-1.0,0.0,0.0,0.0,0.0,0.0,0.0,0.0,0.0,-0.09054746874031569,-0.02982740212829287,-0.25459818356681835,0.0,0.0,0.0,0.0,0.0,0.0,0.0,0.0,0.0,-1.5471826171875,8.3681982421875,-4.4307861328125,0.0,0.0,0.0,0.0,0.0,0.0,0.0,0.0,0.0
1455208574.11173,6296,1455208574,109572599,base_link,0.0,0.0,0.0,0.0,-1.0,0.0,0.0,0.0,0.0,0.0,0.0,0.0,0.0,-0.013848436628114738,-0.005326322180158476,0.15978966540475428,0.0,0.0,0.0,0.0,0.0,0.0,0.0,0.0,0.0,-0.929267578125,4.914580078125001,-5.07744140625,0.0,0.0,0.0,0.0,0.0,0.0,0.0,0.0,0.0
1455208574.1214585,6298,1455208574,111570599,base_link,0.0,0.0,0.0,0.0,-1.0,0.0,0.0,0.0,0.0,0.0,0.0,0.0,0.0,-0.06498112643674421,-0.052197953204363864,0.5869607042534641,0.0,0.0,0.0,0.0,0.0,0.0,0.0,0.0,0.0,2.9698242187500004,8.535849609375001,-1.9639160156250002,0.0,0.0,0.0,0.0,0.0,0.0,0.0,0.0,0.0
1455208574.1215281,6300,1455208574,113568599,base_link,0.0,0.0,0.0,0.0,-1.0,0.0,0.0,0.0,0.0,0.0,0.0,0.0,0.0,-0.18855178853285323,-0.1118527574609496,-0.3323625040418889,0.0,0.0,0.0,0.0,0.0,0.0,0.0,0.0,0.0,0.7041357421875001,14.408437500000002,-0.48379394531250003,0.0,0.0,0.0,0.0,0.0,0.0,0.0,0.0,0.0
1455208574.12159,6302,1455208574,115566599,base_link,0.0,0.0,0.0,0.0,-1.0,0.0,0.0,0.0,0.0,0.0,0.0,0.0,0.0,-0.021305288720633905,-0.07882956826634545,-0.6977482056007603,0.0,0.0,0.0,0.0,0.0,0.0,0.0,0.0,0.0,-3.899091796875,6.2510009765625005,-5.6953564453125,0.0,0.0,0.0,0.0,0.0,0.0,0.0,0.0,0.0
1455208574.1216478,6305,1455208574,118563599,base_link,0.0,0.0,0.0,0.0,-1.0,0.0,0.0,0.0,0.0,0.0,0.0,0.0,0.0,-0.17150757420110294,0.004261057484052456,0.8287756646536317,0.0,0.0,0.0,0.0,0.0,0.0,0.0,0.0,0.0,4.0954833984375005,13.6947216796875,0.32572265625,0.0,0.0,0.0,0.0,0.0,0.0,0.0,0.0,0.0
1455208574.1217031,6306,1455208574,119562599,base_link,0.0,0.0,0.0,0.0,-1.0,0.0,0.0,0.0,0.0,0.0,0.0,0.0,0.0,-0.20453075507332868,0.011717907756051346,0.6072007285380663,0.0,0.0,0.0,0.0,0.0,0.0,0.0,0.0,0.0,4.3828857421875,13.919853515625,0.4981640625,0.0,0.0,0.0,0.0,0.0,0.0,0.0,0.0,0.0
1455208574.1325967,6309,1455208574,122559599,base_link,0.0,0.0,0.0,0.0,-1.0,0.0,0.0,0.0,0.0,0.0,0.0,0.0,0.0,-0.08628641931856731,-0.1970739040211068,-0.9832390078782275,0.0,0.0,0.0,0.0,0.0,0.0,0.0,0.0,0.0,-3.4488281250000004,5.8103173828125,-5.508544921875,0.0,0.0,0.0,0.0,0.0,0.0,0.0,0.0,0.0
1455208574.1327393,6312,1455208574,125556599,base_link,0.0,0.0,0.0,0.0,-1.0,0.0,0.0,0.0,0.0,0.0,0.0,0.0,0.0,-0.14061490555618378,0.0660463908727759,0.715857634434272,0.0,0.0,0.0,0.0,0.0,0.0,0.0,0.0,0.0,2.6584716796875,13.325888671875001,0.5029541015625,0.0,0.0,0.0,0.0,0.0,0.0,0.0,0.0,0.0
1455208574.1328235,6315,1455208574,128553599,base_link,0.0,0.0,0.0,0.0,-1.0,0.0,0.0,0.0,0.0,0.0,0.0,0.0,0.0,-0.21305287056158223,-0.1960086395850751,-0.42930153443125957,0.0,0.0,0.0,0.0,0.0,0.0,0.0,0.0,0.0,0.737666015625,4.0188427734375,-5.819897460937501,0.0,0.0,0.0,0.0,0.0,0.0,0.0,0.0,0.0
1455208574.132892,6316,1455208574,129552599,base_link,0.0,0.0,0.0,0.0,-1.0,0.0,0.0,0.0,0.0,0.0,0.0,0.0,0.0,-0.23009710153808935,-0.25246765469475496,-0.9108010262280721,0.0,0.0,0.0,0.0,0.0,0.0,0.0,0.0,0.0,-2.3231689453125,12.966635742187501,-2.3998095703125,0.0,0.0,0.0,0.0,0.0,0.0,0.0,0.0,0.0
1455208574.1424696,6317,1455208574,130551599,base_link,0.0,0.0,0.0,0.0,-1.0,0.0,0.0,0.0,0.0,0.0,0.0,0.0,0.0,-0.1267664595653933,-0.16192019427681767,-0.8159924914212513,0.0,0.0,0.0,0.0,0.0,0.0,0.0,0.0,0.0,-3.7793408203125,17.5171728515625,0.39278320312500004,0.0,0.0,0.0,0.0,0.0,0.0,0.0,0.0,0.0
1455208574.1425433,6318,1455208574,131550599,base_link,0.0,0.0,0.0,0.0,-1.0,0.0,0.0,0.0,0.0,0.0,0.0,0.0,0.0,0.005326322180158476,0.005326322180158476,-0.23861921702634295,0.0,0.0,0.0,0.0,0.0,0.0,0.0,0.0,0.0,-2.6488916015625,13.64203125,0.10059082031250001,0.0,0.0,0.0,0.0,0.0,0.0,0.0,0.0,0.0
1455208574.1426053,6321,1455208574,134547599,base_link,0.0,0.0,0.0,0.0,-1.0,0.0,0.0,0.0,0.0,0.0,0.0,0.0,0.0,-0.2460760680785648,-0.11930960851317148,0.532632184726334,0.0,0.0,0.0,0.0,0.0,0.0,0.0,0.0,0.0,3.9853125,4.378095703125,-6.025869140625001,0.0,0.0,0.0,0.0,0.0,0.0,0.0,0.0,0.0
1455208574.1426678,6323,1455208574,136545599,base_link,0.0,0.0,0.0,0.0,-1.0,0.0,0.0,0.0,0.0,0.0,0.0,0.0,0.0,-0.10546117084475942,-0.18429073078872646,-0.521979540366017,0.0,0.0,0.0,0.0,0.0,0.0,0.0,0.0,0.0,-0.41194335937500004,16.4154638671875,0.67060546875,0.0,0.0,0.0,0.0,0.0,0.0,0.0,0.0,0.0
1455208574.142725,6325,1455208574,138543599,base_link,0.0,0.0,0.0,0.0,-1.0,0.0,0.0,0.0,0.0,0.0,0.0,0.0,0.0,0.12037487294920317,0.06072006869261743,-0.45806367420411537,0.0,0.0,0.0,0.0,0.0,0.0,0.0,0.0,0.0,-3.4919384765625003,6.112089843750001,-1.9878662109375,0.0,0.0,0.0,0.0,0.0,0.0,0.0,0.0,0.0
1455208574.1427832,6326,1455208574,139542599,base_link,0.0,0.0,0.0,0.0,-1.0,0.0,0.0,0.0,0.0,0.0,0.0,0.0,0.0,-0.06391586200071252,0.052197953204363864,-0.013848436628114738,0.0,0.0,0.0,0.0,0.0,0.0,0.0,0.0,0.0,-1.676513671875,2.5147705078125,-5.973178710937501,0.0,0.0,0.0,0.0,0.0,0.0,0.0,0.0,0.0
1455208574.1523283,6327,1455208574,140541599,base_link,0.0,0.0,0.0,0.0,-1.0,0.0,0.0,0.0,0.0,0.0,0.0,0.0,0.0,-0.2695118856712621,-0.07456851052221868,0.39734360135030866,0.0,0.0,0.0,0.0,0.0,0.0,0.0,0.0,0.0,1.149609375,6.0019189453125,-6.8162255859375005,0.0,0.0,0.0,0.0,0.0,0.0,0.0,0.0,0.0
1455208574.1524048,6330,1455208574,143538599,base_link,0.0,0.0,0.0,0.0,-1.0,0.0,0.0,0.0,0.0,0.0,0.0,0.0,0.0,0.15233281435253243,-0.04048004856920442,-0.012783172192083043,0.0,0.0,0.0,0.0,0.0,0.0,0.0,0.0,0.0,1.70525390625,10.796748046875,0.8047265625000001,0.0,0.0,0.0,0.0,0.0,0.0,0.0,0.0,0.0
1455208574.1524813,6333,1455208574,146535599,base_link,0.0,0.0,0.0,0.0,-1.0,0.0,0.0,0.0,0.0,0.0,0.0,0.0,0.0,-0.3312972396058572,-0.11930960851317148,-0.49002160728506616,0.0,0.0,0.0,0.0,0.0,0.0,0.0,0.0,0.0,-3.0273046875,7.2377490234375,-6.897656250000001,0.0,0.0,0.0,0.0,0.0,0.0,0.0,0.0,0.0
1455208574.1525538,6336,1455208574,149532599,base_link,0.0,0.0,0.0,0.0,-1.0,0.0,0.0,0.0,0.0,0.0,0.0,0.0,0.0,0.06285059756468081,0.009587379924285258,0.6008091419218762,0.0,0.0,0.0,0.0,0.0,0.0,0.0,0.0,0.0,3.2236962890625,10.2650537109375,0.30177246093750004,0.0,0.0,0.0,0.0,0.0,0.0,0.0,0.0,0.0
1455208574.162365,6339,1455208574,152529599,base_link,0.0,0.0,0.0,0.0,-1.0,0.0,0.0,0.0,0.0,0.0,0.0,0.0,0.0,-0.3323625040418889,-0.11611381520507637,-0.40799624571062565,0.0,0.0,0.0,0.0,0.0,0.0,0.0,0.0,0.0,-1.1735595703125001,8.3155078125,-4.8044091796875,0.0,0.0,0.0,0.0,0.0,0.0,0.0,0.0,0.0
1455208574.1624303,6341,1455208574,154528599,base_link,0.0,0.0,0.0,0.0,-1.0,0.0,0.0,0.0,0.0,0.0,0.0,0.0,0.0,-0.18642125966078985,-0.20453075507332868,-0.6285060172587003,0.0,0.0,0.0,0.0,0.0,0.0,0.0,0.0,0.0,-2.9075537109375,16.784296875000003,-1.22625,0.0,0.0,0.0,0.0,0.0,0.0,0.0,0.0,0.0
1455208574.16249,6344,1455208574,157525599,base_link,0.0,0.0,0.0,0.0,-1.0,0.0,0.0,0.0,0.0,0.0,0.0,0.0,0.0,-0.004261057484052456,0.0916127331763474,0.6902913545485385,0.0,0.0,0.0,0.0,0.0,0.0,0.0,0.0,0.0,2.7351123046875,3.726650390625,-3.8511914062500003,0.0,0.0,0.0,0.0,0.0,0.0,0.0,0.0,0.0
1455208574.162548,6346,1455208574,159523599,base_link,0.0,0.0,0.0,0.0,-1.0,0.0,0.0,0.0,0.0,0.0,0.0,0.0,0.0,-0.20133496176523358,-0.12783172400142503,0.10226537753666434,0.0,0.0,0.0,0.0,0.0,0.0,0.0,0.0,0.0,1.753154296875,11.1368408203125,-2.3710693359375,0.0,0.0,0.0,0.0,0.0,0.0,0.0,0.0,0.0
1455208574.172429,6349,1455208574,162520599,base_link,0.0,0.0,0.0,0.0,-1.0,0.0,0.0,0.0,0.0,0.0,0.0,0.0,0.0,0.02663160882019778,-0.06178533312864912,-0.7797735005961737,0.0,0.0,0.0,0.0,0.0,0.0,0.0,0.0,0.0,-3.2141162109375,8.813671875,-2.4189697265625,0.0,0.0,0.0,0.0,0.0,0.0,0.0,0.0,0.0
1455208574.1725304,6353,1455208574,166516599,base_link,0.0,0.0,0.0,0.0,-1.0,0.0,0.0,0.0,0.0,0.0,0.0,0.0,0.0,-0.2077265483814238,-0.14274543442824716,0.6359628683109221,0.0,0.0,0.0,0.0,0.0,0.0,0.0,0.0,0.0,4.7181884765625,11.6876953125,-1.2166699218750001,0.0,0.0,0.0,0.0,0.0,0.0,0.0,0.0,0.0
1455208574.1725955,6356,1455208574,169513599,base_link,0.0,0.0,0.0,0.0,-1.0,0.0,0.0,0.0,0.0,0.0,0.0,0.0,0.0,-0.02450107994813439,-0.05432848207642726,-0.9736516279539422,0.0,0.0,0.0,0.0,0.0,0.0,0.0,0.0,0.0,-4.493056640625,9.3166259765625,-2.7590625,0.0,0.0,0.0,0.0,0.0,0.0,0.0,0.0,0.0
1455208574.1821895,6358,1455208574,171511599,base_link,0.0,0.0,0.0,0.0,-1.0,0.0,0.0,0.0,0.0,0.0,0.0,0.0,0.0,-0.05858953982055403,0.022370551076071,0.3366235617860157,0.0,0.0,0.0,0.0,0.0,0.0,0.0,0.0,0.0,-1.4992822265625,5.23072265625,-4.014052734375,0.0,0.0,0.0,0.0,0.0,0.0,0.0,0.0,0.0
1455208574.1822639,6360,1455208574,173509599,base_link,0.0,0.0,0.0,0.0,-1.0,0.0,0.0,0.0,0.0,0.0,0.0,0.0,0.0,-0.2269013082299943,-0.09693905535650586,0.8010787893168076,0.0,0.0,0.0,0.0,0.0,0.0,0.0,0.0,0.0,5.2498828125,15.0215625,-0.6658154296875001,0.0,0.0,0.0,0.0,0.0,0.0,0.0,0.0,0.0
1455208574.1823397,6363,1455208574,176506599,base_link,0.0,0.0,0.0,0.0,-1.0,0.0,0.0,0.0,0.0,0.0,0.0,0.0,0.0,0.17363810307316632,-0.07350324608618697,-0.7723166495439517,0.0,0.0,0.0,0.0,0.0,0.0,0.0,0.0,0.0,-3.515888671875,2.8931835937500003,-4.473896484375,0.0,0.0,0.0,0.0,0.0,0.0,0.0,0.0,0.0
1455208574.1824083,6366,1455208574,179503599,base_link,0.0,0.0,0.0,0.0,-1.0,0.0,0.0,0.0,0.0,0.0,0.0,0.0,0.0,-0.20985707725348718,-0.04900215989626878,0.4559331453320519,0.0,0.0,0.0,0.0,0.0,0.0,0.0,0.0,0.0,2.174677734375,15.802338867187501,-1.4322216796875,0.0,0.0,0.0,0.0,0.0,0.0,0.0,0.0,0.0
1455208574.1923246,6367,1455208574,180502599,base_link,0.0,0.0,0.0,0.0,-1.0,0.0,0.0,0.0,0.0,0.0,0.0,0.0,0.0,-0.12996225287348842,-0.002130528742026228,0.5773733243291789,0.0,0.0,0.0,0.0,0.0,0.0,0.0,0.0,0.0,4.2775048828125,12.822934570312501,-1.28373046875,0.0,0.0,0.0,0.0,0.0,0.0,0.0,0.0,0.0
1455208574.1924138,6369,1455208574,182500599,base_link,0.0,0.0,0.0,0.0,-1.0,0.0,0.0,0.0,0.0,0.0,0.0,0.0,0.0,0.0660463908727759,-0.02663160882019778,-0.11824434407713978,0.0,0.0,0.0,0.0,0.0,0.0,0.0,0.0,0.0,0.1389111328125,1.082548828125,-4.6511279296875,0.0,0.0,0.0,0.0,0.0,0.0,0.0,0.0,0.0
1455208574.1924884,6372,1455208574,185497599,base_link,0.0,0.0,0.0,0.0,-1.0,0.0,0.0,0.0,0.0,0.0,0.0,0.0,0.0,-0.2269013082299943,-0.1118527574609496,-0.3685814615774529,0.0,0.0,0.0,0.0,0.0,0.0,0.0,0.0,0.0,-2.481240234375,17.45490234375,-0.3113525390625,0.0,0.0,0.0,0.0,0.0,0.0,0.0,0.0,0.0
1455208574.1925495,6375,1455208574,188494599,base_link,0.0,0.0,0.0,0.0,-1.0,0.0,0.0,0.0,0.0,0.0,0.0,0.0,0.0,0.03089266656432456,0.011717907756051346,0.4719121118725274,0.0,0.0,0.0,0.0,0.0,0.0,0.0,0.0,0.0,1.7196240234375,1.0154882812500001,-4.881049804687501,0.0,0.0,0.0,0.0,0.0,0.0,0.0,0.0,0.0
1455208574.1926308,6376,1455208574,189493599,base_link,0.0,0.0,0.0,0.0,-1.0,0.0,0.0,0.0,0.0,0.0,0.0,0.0,0.0,-0.07350324608618697,-0.06498112643674421,0.3984088657863404,0.0,0.0,0.0,0.0,0.0,0.0,0.0,0.0,0.0,3.0033544921875,2.54830078125,-4.7133984375,0.0,0.0,0.0,0.0,0.0,0.0,0.0,0.0,0.0
1455208574.202168,6377,1455208574,190492599,base_link,0.0,0.0,0.0,0.0,-1.0,0.0,0.0,0.0,0.0,0.0,0.0,0.0,0.0,-0.20453075507332868,-0.11824434407713978,0.11611381520507637,0.0,0.0,0.0,0.0,0.0,0.0,0.0,0.0,0.0,2.0261865234375,11.117680664062501,-1.24541015625,0.0,0.0,0.0,0.0,0.0,0.0,0.0,0.0,0.0
1455208574.2022495,6381,1455208574,194488599,base_link,0.0,0.0,0.0,0.0,-1.0,0.0,0.0,0.0,0.0,0.0,0.0,0.0,0.0,0.021305288720633905,-0.019174759848570515,-0.1778991441725363,0.0,0.0,0.0,0.0,0.0,0.0,0.0,0.0,0.0,-1.66693359375,1.6813037109375002,-6.562353515625,0.0,0.0,0.0,0.0,0.0,0.0,0.0,0.0,0.0
1455208574.2023146,6382,1455208574,195487599,base_link,0.0,0.0,0.0,0.0,-1.0,0.0,0.0,0.0,0.0,0.0,0.0,0.0,0.0,-0.027696873256229475,-0.04048004856920442,0.371777254885548,0.0,0.0,0.0,0.0,0.0,0.0,0.0,0.0,0.0,0.8813671875000001,4.92416015625,-5.0247509765625,0.0,0.0,0.0,0.0,0.0,0.0,0.0,0.0,0.0
1455208574.202375,6385,1455208574,198484599,base_link,0.0,0.0,0.0,0.0,-1.0,0.0,0.0,0.0,0.0,0.0,0.0,0.0,0.0,0.07669903939428206,-0.017044229936209822,0.14807175660840563,0.0,0.0,0.0,0.0,0.0,0.0,0.0,0.0,0.0,2.5243505859375,11.6733251953125,0.3975732421875,0.0,0.0,0.0,0.0,0.0,0.0,0.0,0.0,0.0
1455208574.2024422,6386,1455208574,199483599,base_link,0.0,0.0,0.0,0.0,-1.0,0.0,0.0,0.0,0.0,0.0,0.0,0.0,0.0,0.07882956826634545,-0.08522115488253562,-0.543284829086651,0.0,0.0,0.0,0.0,0.0,0.0,0.0,0.0,0.0,-0.5269042968750001,6.619833984375,-3.496728515625,0.0,0.0,0.0,0.0,0.0,0.0,0.0,0.0,0.0
1455208574.2123206,6389,1455208574,202480599,base_link,0.0,0.0,0.0,0.0,-1.0,0.0,0.0,0.0,0.0,0.0,0.0,0.0,0.0,0.019174759848570515,-0.04793689546023708,-0.009587379924285258,0.0,0.0,0.0,0.0,0.0,0.0,0.0,0.0,0.0,-3.0608349609375,12.7462939453125,-2.442919921875,0.0,0.0,0.0,0.0,0.0,0.0,0.0,0.0,0.0
1455208574.2124004,6392,1455208574,205477599,base_link,0.0,0.0,0.0,0.0,-1.0,0.0,0.0,0.0,0.0,0.0,0.0,0.0,0.0,0.07776430383031376,0.01810949541253882,0.5880259686894957,0.0,0.0,0.0,0.0,0.0,0.0,0.0,0.0,0.0,4.665498046875,4.0667431640625,-3.88951171875,0.0,0.0,0.0,0.0,0.0,0.0,0.0,0.0,0.0
1455208574.2124596,6395,1455208574,208474599,base_link,0.0,0.0,0.0,0.0,-1.0,0.0,0.0,0.0,0.0,0.0,0.0,0.0,0.0,-0.07243798165015528,-0.18961705296888492,-0.893756795251565,0.0,0.0,0.0,0.0,0.0,0.0,0.0,0.0,0.0,-4.3014550781250005,16.142431640625002,-1.6334033203125,0.0,0.0,0.0,0.0,0.0,0.0,0.0,0.0,0.0
1455208574.2125149,6396,1455208574,209473599,base_link,0.0,0.0,0.0,0.0,-1.0,0.0,0.0,0.0,0.0,0.0,0.0,0.0,0.0,0.02982740212829287,-0.05432848207642726,-0.38242989924586496,0.0,0.0,0.0,0.0,0.0,0.0,0.0,0.0,0.0,-3.4440380859375,14.762900390625001,-0.20597167968750002,0.0,0.0,0.0,0.0,0.0,0.0,0.0,0.0,0.0
1455208574.2220638,6398,1455208574,211471599,base_link,0.0,0.0,0.0,0.0,-1.0,0.0,0.0,0.0,0.0,0.0,0.0,0.0,0.0,-0.14913702104443735,0.10226537753666434,0.7882956160844272,0.0,0.0,0.0,0.0,0.0,0.0,0.0,0.0,0.0,2.8596533203125003,3.23806640625,-3.9422021484375,0.0,0.0,0.0,0.0,0.0,0.0,0.0,0.0,0.0
1455208574.2221477,6400,1455208574,213469599,base_link,0.0,0.0,0.0,0.0,-1.0,0.0,0.0,0.0,0.0,0.0,0.0,0.0,0.0,-0.39521307247824533,-0.14274543442824716,0.12783172400142503,0.0,0.0,0.0,0.0,0.0,0.0,0.0,0.0,0.0,2.3471191406250003,8.9717431640625,-4.4307861328125,0.0,0.0,0.0,0.0,0.0,0.0,0.0,0.0,0.0
1455208574.2222085,6403,1455208574,216466599,base_link,0.0,0.0,0.0,0.0,-1.0,0.0,0.0,0.0,0.0,0.0,0.0,0.0,0.0,0.02024002428460221,-0.007456850532073217,-0.5070658382615733,0.0,0.0,0.0,0.0,0.0,0.0,0.0,0.0,0.0,-3.08478515625,9.2878857421875,0.2442919921875,0.0,0.0,0.0,0.0,0.0,0.0,0.0,0.0,0.0
1455208574.222278,6405,1455208574,218464599,base_link,0.0,0.0,0.0,0.0,-1.0,0.0,0.0,0.0,0.0,0.0,0.0,0.0,0.0,-0.2482065969506282,0.043675841877299504,0.47510790518062246,0.0,0.0,0.0,0.0,0.0,0.0,0.0,0.0,0.0,0.316142578125,5.666616210937501,-5.42232421875,0.0,0.0,0.0,0.0,0.0,0.0,0.0,0.0,0.0
1455208574.2223399,6406,1455208574,219463599,base_link,0.0,0.0,0.0,0.0,-1.0,0.0,0.0,0.0,0.0,0.0,0.0,0.0,0.0,-0.2695118856712621,-0.0660463908727759,0.6519418348513975,0.0,0.0,0.0,0.0,0.0,0.0,0.0,0.0,0.0,2.1794677734375,10.121352539062501,-4.2152343750000005,0.0,0.0,0.0,0.0,0.0,0.0,0.0,0.0,0.0
1455208574.2320228,6409,1455208574,222460599,base_link,0.0,0.0,0.0,0.0,-1.0,0.0,0.0,0.0,0.0,0.0,0.0,0.0,0.0,0.2641855634911036,-0.056459010948490644,-0.4431499720996716,0.0,0.0,0.0,0.0,0.0,0.0,0.0,0.0,0.0,-0.852626953125,8.507109375,0.469423828125,0.0,0.0,0.0,0.0,0.0,0.0,0.0,0.0,0.0
1455208574.232122,6411,1455208574,224458599,base_link,0.0,0.0,0.0,0.0,-1.0,0.0,0.0,0.0,0.0,0.0,0.0,0.0,0.0,0.056459010948490644,-0.007456850532073217,-0.45060682315189343,0.0,0.0,0.0,0.0,0.0,0.0,0.0,0.0,0.0,-3.822451171875,7.563471679687501,-5.1732421875000005,0.0,0.0,0.0,0.0,0.0,0.0,0.0,0.0,0.0
1455208574.2322147,6415,1455208574,228454599,base_link,0.0,0.0,0.0,0.0,-1.0,0.0,0.0,0.0,0.0,0.0,0.0,0.0,0.0,0.3004045709609381,-0.011717907756051346,0.4548678808960202,0.0,0.0,0.0,0.0,0.0,0.0,0.0,0.0,0.0,4.981640625,9.0100634765625,-0.49337402343750003,0.0,0.0,0.0,0.0,0.0,0.0,0.0,0.0,0.0
1455208574.2322724,6416,1455208574,229453599,base_link,0.0,0.0,0.0,0.0,-1.0,0.0,0.0,0.0,0.0,0.0,0.0,0.0,0.0,0.2237055149218992,0.01810949541253882,0.009587379924285258,0.0,0.0,0.0,0.0,0.0,0.0,0.0,0.0,0.0,1.99265625,6.3707519531250005,-1.5950830078125,0.0,0.0,0.0,0.0,0.0,0.0,0.0,0.0,0.0
1455208574.2421024,6418,1455208574,231451599,base_link,0.0,0.0,0.0,0.0,-1.0,0.0,0.0,0.0,0.0,0.0,0.0,0.0,0.0,-0.12570119512936162,-0.1107874930249179,-0.6423544549271123,0.0,0.0,0.0,0.0,0.0,0.0,0.0,0.0,0.0,-3.6164794921875,9.3836865234375,-5.5899755859375,0.0,0.0,0.0,0.0,0.0,0.0,0.0,0.0,0.0
1455208574.242187,6422,1455208574,235447599,base_link,0.0,0.0,0.0,0.0,-1.0,0.0,0.0,0.0,0.0,0.0,0.0,0.0,0.0,0.007456850532073217,0.10013484866460096,0.6317018105667953,0.0,0.0,0.0,0.0,0.0,0.0,0.0,0.0,0.0,3.3338671875,7.189848632812501,-1.082548828125,0.0,0.0,0.0,0.0,0.0,0.0,0.0,0.0,0.0
1455208574.2422452,6425,1455208574,238444599,base_link,0.0,0.0,0.0,0.0,-1.0,0.0,0.0,0.0,0.0,0.0,0.0,0.0,0.0,-0.38775622142602345,-0.2215749860498358,-0.5880259686894957,0.0,0.0,0.0,0.0,0.0,0.0,0.0,0.0,0.0,-1.082548828125,11.5344140625,-4.243974609375,0.0,0.0,0.0,0.0,0.0,0.0,0.0,0.0,0.0
1455208574.2423017,6426,1455208574,239443599,base_link,0.0,0.0,0.0,0.0,-1.0,0.0,0.0,0.0,0.0,0.0,0.0,0.0,0.0,-0.3227751241176037,-0.23542342371824784,-0.8522114822463289,0.0,0.0,0.0,0.0,0.0,0.0,0.0,0.0,0.0,-2.4141796875000003,16.45857421875,-1.6525634765625001,0.0,0.0,0.0,0.0,0.0,0.0,0.0,0.0,0.0
1455208574.251948,6427,1455208574,240442599,base_link,0.0,0.0,0.0,0.0,-1.0,0.0,0.0,0.0,0.0,0.0,0.0,0.0,0.0,-0.1267664595653933,-0.09267799761237908,-0.5965480841777494,0.0,0.0,0.0,0.0,0.0,0.0,0.0,0.0,0.0,-2.7255322265625,15.0550927734375,-0.5748046875,0.0,0.0,0.0,0.0,0.0,0.0,0.0,0.0,0.0
1455208574.2521217,6431,1455208574,244438599,base_link,0.0,0.0,0.0,0.0,-1.0,0.0,0.0,0.0,0.0,0.0,0.0,0.0,0.0,-0.23116236597412107,-0.14274543442824716,0.4814994917968127,0.0,0.0,0.0,0.0,0.0,0.0,0.0,0.0,0.0,3.4919384765625003,8.8184619140625,-3.2811767578125,0.0,0.0,0.0,0.0,0.0,0.0,0.0,0.0,0.0
1455208574.2521992,6434,1455208574,247435599,base_link,0.0,0.0,0.0,0.0,-1.0,0.0,0.0,0.0,0.0,0.0,0.0,0.0,0.0,0.20559601950936035,-0.01810949541253882,-0.838363044577917,0.0,0.0,0.0,0.0,0.0,0.0,0.0,0.0,0.0,-3.573369140625,9.493857421875001,-1.2549902343750001,0.0,0.0,0.0,0.0,0.0,0.0,0.0,0.0,0.0
1455208574.25232,6436,1455208574,249433599,base_link,0.0,0.0,0.0,0.0,-1.0,0.0,0.0,0.0,0.0,0.0,0.0,0.0,0.0,0.11717907964110806,0.09374326204841077,0.47510790518062246,0.0,0.0,0.0,0.0,0.0,0.0,0.0,0.0,0.0,-0.20118164062500002,2.1459375,-6.059399414062501,0.0,0.0,0.0,0.0,0.0,0.0,0.0,0.0,0.0
1455208574.261882,6437,1455208574,250432599,base_link,0.0,0.0,0.0,0.0,-1.0,0.0,0.0,0.0,0.0,0.0,0.0,0.0,0.0,-0.046871631024205385,-0.03195793100035626,0.9129315551001356,0.0,0.0,0.0,0.0,0.0,0.0,0.0,0.0,0.0,3.1853759765625003,10.135722656250001,-3.745810546875,0.0,0.0,0.0,0.0,0.0,0.0,0.0,0.0,0.0
1455208574.261978,6440,1455208574,253429599,base_link,0.0,0.0,0.0,0.0,-1.0,0.0,0.0,0.0,0.0,0.0,0.0,0.0,0.0,0.2609897701830085,-0.09587379092047416,-0.6540723637234609,0.0,0.0,0.0,0.0,0.0,0.0,0.0,0.0,0.0,-0.3400927734375,8.722661132812501,-1.2933105468750001,0.0,0.0,0.0,0.0,0.0,0.0,0.0,0.0,0.0
1455208574.2620518,6443,1455208574,256426599,base_link,0.0,0.0,0.0,0.0,-1.0,0.0,0.0,0.0,0.0,0.0,0.0,0.0,0.0,-0.052197953204363864,-0.027696873256229475,0.07882956826634545,0.0,0.0,0.0,0.0,0.0,0.0,0.0,0.0,0.0,-1.5471826171875,9.3645263671875,-5.6282958984375,0.0,0.0,0.0,0.0,0.0,0.0,0.0,0.0,0.0
1455208574.2621303,6445,1455208574,258424599,base_link,0.0,0.0,0.0,0.0,-1.0,0.0,0.0,0.0,0.0,0.0,0.0,0.0,0.0,-0.019174759848570515,-0.017044229936209822,0.8053398470609343,0.0,0.0,0.0,0.0,0.0,0.0,0.0,0.0,0.0,3.822451171875,13.982124023437501,-0.8813671875000001,0.0,0.0,0.0,0.0,0.0,0.0,0.0,0.0,0.0
1455208574.2621975,6446,1455208574,259423599,base_link,0.0,0.0,0.0,0.0,-1.0,0.0,0.0,0.0,0.0,0.0,0.0,0.0,0.0,0.06498112643674421,-0.014913701064146434,0.34834147058236437,0.0,0.0,0.0,0.0,0.0,0.0,0.0,0.0,0.0,3.9517822265625,5.326523437500001,-2.60578125,0.0,0.0,0.0,0.0,0.0,0.0,0.0,0.0,0.0
1455208574.2717717,6448,1455208574,261421599,base_link,0.0,0.0,0.0,0.0,-1.0,0.0,0.0,0.0,0.0,0.0,0.0,0.0,0.0,-0.12889698843745673,-0.12357066625729823,-0.7414239808990326,0.0,0.0,0.0,0.0,0.0,0.0,0.0,0.0,0.0,-2.941083984375,2.9027636718750003,-5.2642529296875,0.0,0.0,0.0,0.0,0.0,0.0,0.0,0.0,0.0
1455208574.2718647,6450,1455208574,263419599,base_link,0.0,0.0,0.0,0.0,-1.0,0.0,0.0,0.0,0.0,0.0,0.0,0.0,0.0,-0.3259709174256987,-0.08096009713840883,-0.21518339943364562,0.0,0.0,0.0,0.0,0.0,0.0,0.0,0.0,0.0,-3.755390625,17.3734716796875,-0.20118164062500002,0.0,0.0,0.0,0.0,0.0,0.0,0.0,0.0,0.0
1455208574.2719252,6453,1455208574,266416599,base_link,0.0,0.0,0.0,0.0,-1.0,0.0,0.0,0.0,0.0,0.0,0.0,0.0,0.0,-0.2940129843447479,0.07776430383031376,0.6306365461307636,0.0,0.0,0.0,0.0,0.0,0.0,0.0,0.0,0.0,4.5457470703125,2.251318359375,-2.77822265625,0.0,0.0,0.0,0.0,0.0,0.0,0.0,0.0,0.0
1455208574.2719836,6455,1455208574,268414599,base_link,0.0,0.0,0.0,0.0,-1.0,0.0,0.0,0.0,0.0,0.0,0.0,0.0,0.0,-0.36218987496126276,-0.0660463908727759,-0.11930960851317148,0.0,0.0,0.0,0.0,0.0,0.0,0.0,0.0,0.0,1.149609375,8.923842773437501,-0.890947265625,0.0,0.0,0.0,0.0,0.0,0.0,0.0,0.0,0.0
1455208574.272044,6456,1455208574,269413599,base_link,0.0,0.0,0.0,0.0,-1.0,0.0,0.0,0.0,0.0,0.0,0.0,0.0,0.0,-0.2950782487807796,-0.09480852648444246,-0.4612594675122104,0.0,0.0,0.0,0.0,0.0,0.0,0.0,0.0,0.0,-1.70525390625,12.339140625,1.0585986328125,0.0,0.0,0.0,0.0,0.0,0.0,0.0,0.0,0.0
1455208574.2816834,6458,1455208574,271411599,base_link,0.0,0.0,0.0,0.0,-1.0,0.0,0.0,0.0,0.0,0.0,0.0,0.0,0.0,-0.043675841877299504,-0.025566344384166086,-0.4484762942798301,0.0,0.0,0.0,0.0,0.0,0.0,0.0,0.0,0.0,-3.4248779296875003,10.375224609375001,-1.101708984375,0.0,0.0,0.0,0.0,0.0,0.0,0.0,0.0,0.0
1455208574.2817593,6460,1455208574,273409599,base_link,0.0,0.0,0.0,0.0,-1.0,0.0,0.0,0.0,0.0,0.0,0.0,0.0,0.0,0.2588592413109451,0.06285059756468081,0.44101944322760817,0.0,0.0,0.0,0.0,0.0,0.0,0.0,0.0,0.0,-1.07296875,3.8368212890625,-3.9469921875000002,0.0,0.0,0.0,0.0,0.0,0.0,0.0,0.0,0.0
1455208574.2818289,6463,1455208574,276406599,base_link,0.0,0.0,0.0,0.0,-1.0,0.0,0.0,0.0,0.0,0.0,0.0,0.0,0.0,0.49428266502919294,-0.05432848207642726,0.3153182730653818,0.0,0.0,0.0,0.0,0.0,0.0,0.0,0.0,0.0,2.8165429687500003,12.89478515625,0.852626953125,0.0,0.0,0.0,0.0,0.0,0.0,0.0,0.0,0.0
1455208574.281901,6466,1455208574,279403599,base_link,0.0,0.0,0.0,0.0,-1.0,0.0,0.0,0.0,0.0,0.0,0.0,0.0,0.0,0.629571281694732,-0.01597896550017813,-0.5518069445749045,0.0,0.0,0.0,0.0,0.0,0.0,0.0,0.0,0.0,-3.2428564453125,7.903564453125,-6.212680664062501,0.0,0.0,0.0,0.0,0.0,0.0,0.0,0.0,0.0
1455208574.2916477,6469,1455208574,282400599,base_link,0.0,0.0,0.0,0.0,-1.0,0.0,0.0,0.0,0.0,0.0,0.0,0.0,0.0,0.3984088657863404,0.06178533312864912,1.0450243451680659,0.0,0.0,0.0,0.0,0.0,0.0,0.0,0.0,0.0,4.9960107421875,10.44228515625,-2.0836669921875,0.0,0.0,0.0,0.0,0.0,0.0,0.0,0.0,0.0
1455208574.2917106,6470,1455208574,283399599,base_link,0.0,0.0,0.0,0.0,-1.0,0.0,0.0,0.0,0.0,0.0,0.0,0.0,0.0,0.2215749860498358,-0.009587379924285258,0.583764910945369,0.0,0.0,0.0,0.0,0.0,0.0,0.0,0.0,0.0,5.7719970703125005,11.199111328125001,-2.529140625,0.0,0.0,0.0,0.0,0.0,0.0,0.0,0.0,0.0
1455208574.2917693,6473,1455208574,286396599,base_link,0.0,0.0,0.0,0.0,-1.0,0.0,0.0,0.0,0.0,0.0,0.0,0.0,0.0,0.13102751730952011,-0.08522115488253562,-0.883104150891248,0.0,0.0,0.0,0.0,0.0,0.0,0.0,0.0,0.0,-4.3062451171875,4.952900390625,-5.906118164062501,0.0,0.0,0.0,0.0,0.0,0.0,0.0,0.0,0.0
1455208574.291827,6475,1455208574,288394599,base_link,0.0,0.0,0.0,0.0,-1.0,0.0,0.0,0.0,0.0,0.0,0.0,0.0,0.0,-0.2716424145433255,0.03195793100035626,0.3984088657863404,0.0,0.0,0.0,0.0,0.0,0.0,0.0,0.0,0.0,-0.5316943359375,11.237431640625001,-1.07296875,0.0,0.0,0.0,0.0,0.0,0.0,0.0,0.0,0.0
1455208574.2918797,6476,1455208574,289393599,base_link,0.0,0.0,0.0,0.0,-1.0,0.0,0.0,0.0,0.0,0.0,0.0,0.0,0.0,-0.4729773763085591,0.05752427538452234,0.7904261449564907,0.0,0.0,0.0,0.0,0.0,0.0,0.0,0.0,0.0,2.9075537109375,13.651611328125,-0.9819580078125001,0.0,0.0,0.0,0.0,0.0,0.0,0.0,0.0,0.0
1455208574.30167,6480,1455208574,293389599,base_link,0.0,0.0,0.0,0.0,-1.0,0.0,0.0,0.0,0.0,0.0,0.0,0.0,0.0,-0.15233281435253243,-0.14594122773634224,-0.6945524122926653,0.0,0.0,0.0,0.0,0.0,0.0,0.0,0.0,0.0,-3.5685791015625004,7.95146484375,-1.8776953125,0.0,0.0,0.0,0.0,0.0,0.0,0.0,0.0,0.0
1455208574.30174,6483,1455208574,296386599,base_link,0.0,0.0,0.0,0.0,-1.0,0.0,0.0,0.0,0.0,0.0,0.0,0.0,0.0,-0.05752427538452234,0.09267799761237908,0.6455502482352073,0.0,0.0,0.0,0.0,0.0,0.0,0.0,0.0,0.0,1.1256591796875,11.5008837890625,-1.1543994140625,0.0,0.0,0.0,0.0,0.0,0.0,0.0,0.0,0.0
1455208574.3018005,6485,1455208574,298384599,base_link,0.0,0.0,0.0,0.0,-1.0,0.0,0.0,0.0,0.0,0.0,0.0,0.0,0.0,0.2631202990550719,-0.05006742433230048,0.37710357706570646,0.0,0.0,0.0,0.0,0.0,0.0,0.0,0.0,0.0,3.0464648437500004,2.212998046875,-4.3733056640625,0.0,0.0,0.0,0.0,0.0,0.0,0.0,0.0,0.0
1455208574.3018556,6486,1455208574,299383599,base_link,0.0,0.0,0.0,0.0,-1.0,0.0,0.0,0.0,0.0,0.0,0.0,0.0,0.0,0.311057215321255,-0.13635383948967858,-0.09693905535650586,0.0,0.0,0.0,0.0,0.0,0.0,0.0,0.0,0.0,1.916015625,5.441484375,-2.9794042968750003,0.0,0.0,0.0,0.0,0.0,0.0,0.0,0.0,0.0
1455208574.311562,6489,1455208574,302380599,base_link,0.0,0.0,0.0,0.0,-1.0,0.0,0.0,0.0,0.0,0.0,0.0,0.0,0.0,0.4399541787915765,0.08415589044650393,-0.15339807878856412,0.0,0.0,0.0,0.0,0.0,0.0,0.0,0.0,0.0,-2.0357666015625,12.1523291015625,-1.2933105468750001,0.0,0.0,0.0,0.0,0.0,0.0,0.0,0.0,0.0
1455208574.3116434,6491,1455208574,304378599,base_link,0.0,0.0,0.0,0.0,-1.0,0.0,0.0,0.0,0.0,0.0,0.0,0.0,0.0,0.3941478080422136,-0.023435815512102692,0.4538026164599886,0.0,0.0,0.0,0.0,0.0,0.0,0.0,0.0,0.0,1.8633251953125,2.4860302734375,-7.1802685546875,0.0,0.0,0.0,0.0,0.0,0.0,0.0,0.0,0.0
1455208574.3117015,6494,1455208574,307375599,base_link,0.0,0.0,0.0,0.0,-1.0,0.0,0.0,0.0,0.0,0.0,0.0,0.0,0.0,0.41438783232681586,-0.019174759848570515,-0.09800431979253756,0.0,0.0,0.0,0.0,0.0,0.0,0.0,0.0,0.0,0.162861328125,14.3365869140625,0.718505859375,0.0,0.0,0.0,0.0,0.0,0.0,0.0,0.0,0.0
1455208574.311758,6496,1455208574,309373599,base_link,0.0,0.0,0.0,0.0,-1.0,0.0,0.0,0.0,0.0,0.0,0.0,0.0,0.0,0.2716424145433255,-0.002130528742026228,-0.529436391418239,0.0,0.0,0.0,0.0,0.0,0.0,0.0,0.0,0.0,-3.2236962890625,4.675078125000001,-5.6378759765625,0.0,0.0,0.0,0.0,0.0,0.0,0.0,0.0,0.0
1455208574.321485,6497,1455208574,310372599,base_link,0.0,0.0,0.0,0.0,-1.0,0.0,0.0,0.0,0.0,0.0,0.0,0.0,0.0,0.05326321764039556,-0.08735168375459901,-0.34408041283823754,0.0,0.0,0.0,0.0,0.0,0.0,0.0,0.0,0.0,-2.1507275390625002,4.378095703125,-8.5454296875,0.0,0.0,0.0,0.0,0.0,0.0,0.0,0.0,0.0
1455208574.3215685,6501,1455208574,314369599,base_link,0.0,0.0,0.0,0.0,-1.0,0.0,0.0,0.0,0.0,0.0,0.0,0.0,0.0,0.20985707725348718,0.0660463908727759,0.40266992353046716,0.0,0.0,0.0,0.0,0.0,0.0,0.0,0.0,0.0,3.3482373046875002,6.0498193359375,-0.3496728515625,0.0,0.0,0.0,0.0,0.0,0.0,0.0,0.0,0.0
1455208574.3216412,6502,1455208574,315368599,base_link,0.0,0.0,0.0,0.0,-1.0,0.0,0.0,0.0,0.0,0.0,0.0,0.0,0.0,0.008522114968104911,-0.011717907756051346,-0.18642125966078985,0.0,0.0,0.0,0.0,0.0,0.0,0.0,0.0,0.0,0.9915380859375,2.0453466796875,-4.205654296875,0.0,0.0,0.0,0.0,0.0,0.0,0.0,0.0,0.0
1455208574.321713,6505,1455208574,318365599,base_link,0.0,0.0,0.0,0.0,-1.0,0.0,0.0,0.0,0.0,0.0,0.0,0.0,0.0,-0.21518339943364562,-0.1352885750536469,-0.45167208758792515,0.0,0.0,0.0,0.0,0.0,0.0,0.0,0.0,0.0,-4.2008642578125,17.598603515625,-1.0394384765625,0.0,0.0,0.0,0.0,0.0,0.0,0.0,0.0,0.0
1455208574.3217719,6506,1455208574,319364599,base_link,0.0,0.0,0.0,0.0,-1.0,0.0,0.0,0.0,0.0,0.0,0.0,0.0,0.0,0.043675841877299504,0.004261057484052456,0.2215749860498358,0.0,0.0,0.0,0.0,0.0,0.0,0.0,0.0,0.0,-1.101708984375,13.0815966796875,0.93884765625,0.0,0.0,0.0,0.0,0.0,0.0,0.0,0.0,0.0
1455208574.3314197,6507,1455208574,320363599,base_link,0.0,0.0,0.0,0.0,-1.0,0.0,0.0,0.0,0.0,0.0,0.0,0.0,0.0,0.1587244009687226,0.1107874930249179,0.7424892453350643,0.0,0.0,0.0,0.0,0.0,0.0,0.0,0.0,0.0,2.9889843750000002,5.26904296875,-0.316142578125,0.0,0.0,0.0,0.0,0.0,0.0,0.0,0.0,0.0
1455208574.3315241,6511,1455208574,324359599,base_link,0.0,0.0,0.0,0.0,-1.0,0.0,0.0,0.0,0.0,0.0,0.0,0.0,0.0,0.03302319543638795,-0.21518339943364562,-0.8543420111183924,0.0,0.0,0.0,0.0,0.0,0.0,0.0,0.0,0.0,-2.2465283203125,16.45857421875,-0.47900390625,0.0,0.0,0.0,0.0,0.0,0.0,0.0,0.0,0.0
1455208574.33162,6513,1455208574,326357599,base_link,0.0,0.0,0.0,0.0,-1.0,0.0,0.0,0.0,0.0,0.0,0.0,0.0,0.0,0.4324973277393546,0.06072006869261743,-0.23222763041015274,0.0,0.0,0.0,0.0,0.0,0.0,0.0,0.0,0.0,-2.117197265625,6.2797412109375,-1.2166699218750001,0.0,0.0,0.0,0.0,0.0,0.0,0.0,0.0,0.0
1455208574.3317,6515,1455208574,328355599,base_link,0.0,0.0,0.0,0.0,-1.0,0.0,0.0,0.0,0.0,0.0,0.0,0.0,0.0,0.14700649217237394,0.0884169398682523,0.8948220596875968,0.0,0.0,0.0,0.0,0.0,0.0,0.0,0.0,0.0,1.6477734375000002,6.7395849609375,-4.27271484375,0.0,0.0,0.0,0.0,0.0,0.0,0.0,0.0,0.0
1455208574.3317633,6516,1455208574,329354599,base_link,0.0,0.0,0.0,0.0,-1.0,0.0,0.0,0.0,0.0,0.0,0.0,0.0,0.0,0.10013484866460096,-0.052197953204363864,0.7339671298468108,0.0,0.0,0.0,0.0,0.0,0.0,0.0,0.0,0.0,3.3051269531250003,10.6290966796875,-3.0129345703125003,0.0,0.0,0.0,0.0,0.0,0.0,0.0,0.0,0.0
1455208574.342639,6519,1455208574,332351599,base_link,0.0,0.0,0.0,0.0,-1.0,0.0,0.0,0.0,0.0,0.0,0.0,0.0,0.0,0.40160465909443543,-0.056459010948490644,-0.8458198956301388,0.0,0.0,0.0,0.0,0.0,0.0,0.0,0.0,0.0,-3.1183154296875,8.497529296875001,-1.350791015625,0.0,0.0,0.0,0.0,0.0,0.0,0.0,0.0,0.0
1455208574.3427122,6523,1455208574,336347599,base_link,0.0,0.0,0.0,0.0,-1.0,0.0,0.0,0.0,0.0,0.0,0.0,0.0,0.0,0.23329289484618446,-0.08522115488253562,0.8809736220191846,0.0,0.0,0.0,0.0,0.0,0.0,0.0,0.0,0.0,4.3828857421875,11.7116455078125,-2.998564453125,0.0,0.0,0.0,0.0,0.0,0.0,0.0,0.0,0.0
1455208574.3427713,6525,1455208574,338345599,base_link,0.0,0.0,0.0,0.0,-1.0,0.0,0.0,0.0,0.0,0.0,0.0,0.0,0.0,0.2940129843447479,-0.08415589044650393,-0.16618125202094444,0.0,0.0,0.0,0.0,0.0,0.0,0.0,0.0,0.0,3.343447265625,9.608818359375,-1.101708984375,0.0,0.0,0.0,0.0,0.0,0.0,0.0,0.0,0.0
1455208574.342832,6526,1455208574,339344599,base_link,0.0,0.0,0.0,0.0,-1.0,0.0,0.0,0.0,0.0,0.0,0.0,0.0,0.0,0.2535329191307866,-0.03834951969714103,-0.6892260901125068,0.0,0.0,0.0,0.0,0.0,0.0,0.0,0.0,0.0,-1.0777587890625,9.493857421875001,-2.787802734375,0.0,0.0,0.0,0.0,0.0,0.0,0.0,0.0,0.0
1455208574.3525326,6529,1455208574,342341599,base_link,0.0,0.0,0.0,0.0,-1.0,0.0,0.0,0.0,0.0,0.0,0.0,0.0,0.0,0.012783172192083043,-0.06072006869261743,0.22903183710205768,0.0,0.0,0.0,0.0,0.0,0.0,0.0,0.0,0.0,-0.13412109375,8.3155078125,-4.799619140625,0.0,0.0,0.0,0.0,0.0,0.0,0.0,0.0,0.0
1455208574.352601,6531,1455208574,344339599,base_link,0.0,0.0,0.0,0.0,-1.0,0.0,0.0,0.0,0.0,0.0,0.0,0.0,0.0,-0.043675841877299504,-0.034088459872419645,0.40693098127459393,0.0,0.0,0.0,0.0,0.0,0.0,0.0,0.0,0.0,4.5074267578125005,13.354628906250001,-0.51732421875,0.0,0.0,0.0,0.0,0.0,0.0,0.0,0.0,0.0
1455208574.3527095,6534,1455208574,347336599,base_link,0.0,0.0,0.0,0.0,-1.0,0.0,0.0,0.0,0.0,0.0,0.0,0.0,0.0,-0.05326321764039556,-0.07030745277809189,-0.4985437227733197,0.0,0.0,0.0,0.0,0.0,0.0,0.0,0.0,0.0,-3.6164794921875,6.265371093750001,-3.554208984375,0.0,0.0,0.0,0.0,0.0,0.0,0.0,0.0,0.0
1455208574.35277,6536,1455208574,349334599,base_link,0.0,0.0,0.0,0.0,-1.0,0.0,0.0,0.0,0.0,0.0,0.0,0.0,0.0,-0.16085492984078598,-0.12996225287348842,-0.21198760612555057,0.0,0.0,0.0,0.0,0.0,0.0,0.0,0.0,0.0,-0.929267578125,15.241904296875001,-1.638193359375,0.0,0.0,0.0,0.0,0.0,0.0,0.0,0.0,0.0
1455208574.3624852,6539,1455208574,352331599,base_link,0.0,0.0,0.0,0.0,-1.0,0.0,0.0,0.0,0.0,0.0,0.0,0.0,0.0,0.28868666216458944,0.09480852648444246,0.5060005738255416,0.0,0.0,0.0,0.0,0.0,0.0,0.0,0.0,0.0,1.2645703125,3.0033544921875,-3.27638671875,0.0,0.0,0.0,0.0,0.0,0.0,0.0,0.0,0.0
1455208574.3625622,6542,1455208574,355328599,base_link,0.0,0.0,0.0,0.0,-1.0,0.0,0.0,0.0,0.0,0.0,0.0,0.0,0.0,0.07456851052221868,-0.1832254663526948,-0.5241100692380805,0.0,0.0,0.0,0.0,0.0,0.0,0.0,0.0,0.0,-1.22625,17.4213720703125,-0.30177246093750004,0.0,0.0,0.0,0.0,0.0,0.0,0.0,0.0,0.0
1455208574.3626227,6545,1455208574,358325599,base_link,0.0,0.0,0.0,0.0,-1.0,0.0,0.0,0.0,0.0,0.0,0.0,0.0,0.0,0.49002160728506616,0.11291802189698129,0.21518339943364562,0.0,0.0,0.0,0.0,0.0,0.0,0.0,0.0,0.0,-0.67060546875,1.6142431640625001,-5.0534912109375005,0.0,0.0,0.0,0.0,0.0,0.0,0.0,0.0,0.0
1455208574.3626795,6546,1455208574,359324599,base_link,0.0,0.0,0.0,0.0,-1.0,0.0,0.0,0.0,0.0,0.0,0.0,0.0,0.0,0.37710357706570646,0.07882956826634545,0.7637945340556982,0.0,0.0,0.0,0.0,0.0,0.0,0.0,0.0,0.0,2.1028271484375,1.005908203125,-6.07376953125,0.0,0.0,0.0,0.0,0.0,0.0,0.0,0.0,0.0
1455208574.3725169,6549,1455208574,362321599,base_link,0.0,0.0,0.0,0.0,-1.0,0.0,0.0,0.0,0.0,0.0,0.0,0.0,0.0,0.11504855076904467,-0.11398328633301298,-0.3025350998330015,0.0,0.0,0.0,0.0,0.0,0.0,0.0,0.0,0.0,1.2070898437500002,15.778388671875001,-0.25387207031250003,0.0,0.0,0.0,0.0,0.0,0.0,0.0,0.0,0.0
1455208574.3725834,6551,1455208574,364319599,base_link,0.0,0.0,0.0,0.0,-1.0,0.0,0.0,0.0,0.0,0.0,0.0,0.0,0.0,0.28336033998443094,-0.023435815512102692,-0.9395631660009279,0.0,0.0,0.0,0.0,0.0,0.0,0.0,0.0,0.0,-4.6942382812500005,4.5840673828125,-5.5851855468750005,0.0,0.0,0.0,0.0,0.0,0.0,0.0,0.0,0.0
1455208574.3726826,6554,1455208574,367316599,base_link,0.0,0.0,0.0,0.0,-1.0,0.0,0.0,0.0,0.0,0.0,0.0,0.0,0.0,-0.04154531300523611,0.025566344384166086,1.0002832388547347,0.0,0.0,0.0,0.0,0.0,0.0,0.0,0.0,0.0,2.9362939453125003,16.583115234375,0.18681152343750002,0.0,0.0,0.0,0.0,0.0,0.0,0.0,0.0,0.0
1455208574.3727682,6556,1455208574,369314599,base_link,0.0,0.0,0.0,0.0,-1.0,0.0,0.0,0.0,0.0,0.0,0.0,0.0,0.0,0.06285059756468081,-0.052197953204363864,0.15978966540475428,0.0,0.0,0.0,0.0,0.0,0.0,0.0,0.0,0.0,3.6212695312500003,7.204218750000001,-2.5147705078125,0.0,0.0,0.0,0.0,0.0,0.0,0.0,0.0,0.0
1455208574.3826451,6558,1455208574,371312599,base_link,0.0,0.0,0.0,0.0,-1.0,0.0,0.0,0.0,0.0,0.0,0.0,0.0,0.0,0.0031957930480207607,-0.15339807878856412,-0.9970874455466394,0.0,0.0,0.0,0.0,0.0,0.0,0.0,0.0,0.0,-3.3386572265625003,5.1109716796875,-5.5324951171875005,0.0,0.0,0.0,0.0,0.0,0.0,0.0,0.0,0.0
1455208574.3827765,6562,1455208574,375308599,base_link,0.0,0.0,0.0,0.0,-1.0,0.0,0.0,0.0,0.0,0.0,0.0,0.0,0.0,0.01597896550017813,0.06817691974483929,0.8309061935256952,0.0,0.0,0.0,0.0,0.0,0.0,0.0,0.0,0.0,4.3445654296875,6.87849609375,-2.3040087890625003,0.0,0.0,0.0,0.0,0.0,0.0,0.0,0.0,0.0
1455208574.382865,6564,1455208574,377306599,base_link,0.0,0.0,0.0,0.0,-1.0,0.0,0.0,0.0,0.0,0.0,0.0,0.0,0.0,0.05965480425658574,-0.10226537753666434,-0.19494337514904342,0.0,0.0,0.0,0.0,0.0,0.0,0.0,0.0,0.0,1.4034814453125,5.355263671875,-4.6367578125,0.0,0.0,0.0,0.0,0.0,0.0,0.0,0.0,0.0
1455208574.3829498,6565,1455208574,378305599,base_link,0.0,0.0,0.0,0.0,-1.0,0.0,0.0,0.0,0.0,0.0,0.0,0.0,0.0,0.12144013738523486,-0.138484368361742,-0.611461786282193,0.0,0.0,0.0,0.0,0.0,0.0,0.0,0.0,0.0,-1.99265625,12.1140087890625,-1.5232324218750002,0.0,0.0,0.0,0.0,0.0,0.0,0.0,0.0,0.0
1455208574.3830369,6566,1455208574,379304599,base_link,0.0,0.0,0.0,0.0,-1.0,0.0,0.0,0.0,0.0,0.0,0.0,0.0,0.0,0.22903183710205768,-0.09693905535650586,-0.5965480841777494,0.0,0.0,0.0,0.0,0.0,0.0,0.0,0.0,0.0,-3.5877392578125002,15.869399414062501,0.7137158203125,0.0,0.0,0.0,0.0,0.0,0.0,0.0,0.0,0.0
1455208574.3925278,6567,1455208574,380303599,base_link,0.0,0.0,0.0,0.0,-1.0,0.0,0.0,0.0,0.0,0.0,0.0,0.0,0.0,0.2897519266006211,0.010652644360316953,-0.24074974589840634,0.0,0.0,0.0,0.0,0.0,0.0,0.0,0.0,0.0,-2.481240234375,13.129497070312501,-0.052690429687500005,0.0,0.0,0.0,0.0,0.0,0.0,0.0,0.0,0.0
1455208574.3926058,6570,1455208574,383300599,base_link,0.0,0.0,0.0,0.0,-1.0,0.0,0.0,0.0,0.0,0.0,0.0,0.0,0.0,0.17257283863713463,-0.04900215989626878,0.4538026164599886,0.0,0.0,0.0,0.0,0.0,0.0,0.0,0.0,0.0,2.3135888671875002,7.539521484375,-5.3887939453125,0.0,0.0,0.0,0.0,0.0,0.0,0.0,0.0,0.0
1455208574.3927677,6571,1455208574,384299599,base_link,0.0,0.0,0.0,0.0,-1.0,0.0,0.0,0.0,0.0,0.0,0.0,0.0,0.0,0.25992450574697684,-0.07669903939428206,0.23968448146237462,0.0,0.0,0.0,0.0,0.0,0.0,0.0,0.0,0.0,2.1028271484375,11.275751953125,-2.1842578125000003,0.0,0.0,0.0,0.0,0.0,0.0,0.0,0.0,0.0
1455208574.3928602,6573,1455208574,386297599,base_link,0.0,0.0,0.0,0.0,-1.0,0.0,0.0,0.0,0.0,0.0,0.0,0.0,0.0,0.3547330239090409,-0.039414784133172724,-0.3376888262220474,0.0,0.0,0.0,0.0,0.0,0.0,0.0,0.0,0.0,-0.97716796875,9.987231445312501,-0.27303222656250004,0.0,0.0,0.0,0.0,0.0,0.0,0.0,0.0,0.0
1455208574.3930194,6575,1455208574,388295599,base_link,0.0,0.0,0.0,0.0,-1.0,0.0,0.0,0.0,0.0,0.0,0.0,0.0,0.0,0.027696873256229475,-0.009587379924285258,-0.36538566826935787,0.0,0.0,0.0,0.0,0.0,0.0,0.0,0.0,0.0,-2.538720703125,7.922724609375001,-6.1839404296875005,0.0,0.0,0.0,0.0,0.0,0.0,0.0,0.0,0.0
1455208574.393116,6576,1455208574,389294599,base_link,0.0,0.0,0.0,0.0,-1.0,0.0,0.0,0.0,0.0,0.0,0.0,0.0,0.0,-0.023435815512102692,-0.0458063665881737,0.007456850532073217,0.0,0.0,0.0,0.0,0.0,0.0,0.0,0.0,0.0,-1.9208056640625002,8.48794921875,-6.6964746093750005,0.0,0.0,0.0,0.0,0.0,0.0,0.0,0.0,0.0
1455208574.401383,6577,1455208574,390293599,base_link,0.0,0.0,0.0,0.0,-1.0,0.0,0.0,0.0,0.0,0.0,0.0,0.0,0.0,0.07137271721412358,-0.06072006869261743,0.4218446833790377,0.0,0.0,0.0,0.0,0.0,0.0,0.0,0.0,0.0,0.8765771484375,9.829160156250001,-3.9134619140625,0.0,0.0,0.0,0.0,0.0,0.0,0.0,0.0,0.0
1455208574.4014585,6580,1455208574,393290599,base_link,0.0,0.0,0.0,0.0,-1.0,0.0,0.0,0.0,0.0,0.0,0.0,0.0,0.0,0.043675841877299504,0.002130528742026228,0.01597896550017813,0.0,0.0,0.0,0.0,0.0,0.0,0.0,0.0,0.0,1.7387841796875,9.441166992187501,-0.7137158203125,0.0,0.0,0.0,0.0,0.0,0.0,0.0,0.0,0.0
1455208574.4015212,6582,1455208574,395288599,base_link,0.0,0.0,0.0,0.0,-1.0,0.0,0.0,0.0,0.0,0.0,0.0,0.0,0.0,-0.11824434407713978,-0.12889698843745673,-0.7563376830034764,0.0,0.0,0.0,0.0,0.0,0.0,0.0,0.0,0.0,-2.806962890625,8.94779296875,-5.666616210937501,0.0,0.0,0.0,0.0,0.0,0.0,0.0,0.0,0.0
1455208574.4015915,6586,1455208574,399284599,base_link,0.0,0.0,0.0,0.0,-1.0,0.0,0.0,0.0,0.0,0.0,0.0,0.0,0.0,0.08309062601047222,0.08202536157444053,0.7222492210504622,0.0,0.0,0.0,0.0,0.0,0.0,0.0,0.0,0.0,4.167333984375,9.522597656250001,-0.2442919921875,0.0,0.0,0.0,0.0,0.0,0.0,0.0,0.0,0.0
1455208574.4016666,6587,1455208574,400283599,base_link,0.0,0.0,0.0,0.0,-1.0,0.0,0.0,0.0,0.0,0.0,0.0,0.0,0.0,0.043675841877299504,0.07669903939428206,0.43356259217538634,0.0,0.0,0.0,0.0,0.0,0.0,0.0,0.0,0.0,2.6632617187500003,6.34201171875,-2.62494140625,0.0,0.0,0.0,0.0,0.0,0.0,0.0,0.0,0.0
1455208574.412484,6590,1455208574,403280599,base_link,0.0,0.0,0.0,0.0,-1.0,0.0,0.0,0.0,0.0,0.0,0.0,0.0,0.0,0.13102751730952011,-0.2237055149218992,-0.9065399684839455,0.0,0.0,0.0,0.0,0.0,0.0,0.0,0.0,0.0,-3.3290771484375004,13.230087890625,-2.4525,0.0,0.0,0.0,0.0,0.0,0.0,0.0,0.0,0.0
1455208574.4125507,6591,1455208574,404279599,base_link,0.0,0.0,0.0,0.0,-1.0,0.0,0.0,0.0,0.0,0.0,0.0,0.0,0.0,0.2439455392065014,-0.09054746874031569,-0.4783036984887175,0.0,0.0,0.0,0.0,0.0,0.0,0.0,0.0,0.0,-2.5051904296875,13.7905224609375,-0.7903564453125,0.0,0.0,0.0,0.0,0.0,0.0,0.0,0.0,0.0
1455208574.412613,6594,1455208574,407276599,base_link,0.0,0.0,0.0,0.0,-1.0,0.0,0.0,0.0,0.0,0.0,0.0,0.0,0.0,0.15233281435253243,0.07882956826634545,0.8532767466823606,0.0,0.0,0.0,0.0,0.0,0.0,0.0,0.0,0.0,2.692001953125,3.0991552734375003,-5.0534912109375005,0.0,0.0,0.0,0.0,0.0,0.0,0.0,0.0,0.0
1455208574.4127178,6596,1455208574,409274599,base_link,0.0,0.0,0.0,0.0,-1.0,0.0,0.0,0.0,0.0,0.0,0.0,0.0,0.0,-0.023435815512102692,-0.24288027477046972,-0.46445526082030547,0.0,0.0,0.0,0.0,0.0,0.0,0.0,0.0,0.0,1.178349609375,11.9415673828125,-3.08478515625,0.0,0.0,0.0,0.0,0.0,0.0,0.0,0.0,0.0
1455208574.4127755,6597,1455208574,410273599,base_link,0.0,0.0,0.0,0.0,-1.0,0.0,0.0,0.0,0.0,0.0,0.0,0.0,0.0,0.07456851052221868,-0.18429073078872646,-0.904409439611882,0.0,0.0,0.0,0.0,0.0,0.0,0.0,0.0,0.0,-2.3806494140625003,16.860937500000002,-0.162861328125,0.0,0.0,0.0,0.0,0.0,0.0,0.0,0.0,0.0
1455208574.422492,6599,1455208574,412271599,base_link,0.0,0.0,0.0,0.0,-1.0,0.0,0.0,0.0,0.0,0.0,0.0,0.0,0.0,0.2503371258226916,0.12463593069332993,-0.1565938720966592,0.0,0.0,0.0,0.0,0.0,0.0,0.0,0.0,0.0,-2.8117529296875,5.7911572265625,-3.1087353515625002,0.0,0.0,0.0,0.0,0.0,0.0,0.0,0.0,0.0
1455208574.4225554,6601,1455208574,414269599,base_link,0.0,0.0,0.0,0.0,-1.0,0.0,0.0,0.0,0.0,0.0,0.0,0.0,0.0,-0.12250540182126654,-0.03834951969714103,0.8788430931471214,0.0,0.0,0.0,0.0,0.0,0.0,0.0,0.0,0.0,2.8213330078125,6.466552734375,-5.680986328125,0.0,0.0,0.0,0.0,0.0,0.0,0.0,0.0,0.0
1455208574.4226139,6603,1455208574,416267599,base_link,0.0,0.0,0.0,0.0,-1.0,0.0,0.0,0.0,0.0,0.0,0.0,0.0,0.0,-0.05113268876833217,-0.16192019427681767,-0.010652644360316953,0.0,0.0,0.0,0.0,0.0,0.0,0.0,0.0,0.0,3.8368212890625,15.931669921875,0.30177246093750004,0.0,0.0,0.0,0.0,0.0,0.0,0.0,0.0,0.0
1455208574.4226716,6606,1455208574,419264599,base_link,0.0,0.0,0.0,0.0,-1.0,0.0,0.0,0.0,0.0,0.0,0.0,0.0,0.0,0.0916127331763474,0.035153726389045944,-0.5230448048020487,0.0,0.0,0.0,0.0,0.0,0.0,0.0,0.0,0.0,-4.3924658203125,2.6632617187500003,-5.470224609375,0.0,0.0,0.0,0.0,0.0,0.0,0.0,0.0,0.0
1455208574.4227366,6607,1455208574,420263599,base_link,0.0,0.0,0.0,0.0,-1.0,0.0,0.0,0.0,0.0,0.0,0.0,0.0,0.0,-0.11504855076904467,-0.04261057744126781,0.02982740212829287,0.0,0.0,0.0,0.0,0.0,0.0,0.0,0.0,0.0,-2.0309765625000002,7.4149804687500005,-6.2031005859375,0.0,0.0,0.0,0.0,0.0,0.0,0.0,0.0,0.0
1455208574.4324105,6610,1455208574,423260599,base_link,0.0,0.0,0.0,0.0,-1.0,0.0,0.0,0.0,0.0,0.0,0.0,0.0,0.0,0.27270767897935716,-0.025566344384166086,0.3589940816531677,0.0,0.0,0.0,0.0,0.0,0.0,0.0,0.0,0.0,3.8703515625000002,10.3512744140625,0.30177246093750004,0.0,0.0,0.0,0.0,0.0,0.0,0.0,0.0,0.0
1455208574.432475,6612,1455208574,425258599,base_link,0.0,0.0,0.0,0.0,-1.0,0.0,0.0,0.0,0.0,0.0,0.0,0.0,0.0,0.14807175660840563,-0.05752427538452234,-0.5273058625461755,0.0,0.0,0.0,0.0,0.0,0.0,0.0,0.0,0.0,-1.561552734375,0.699345703125,-5.182822265625,0.0,0.0,0.0,0.0,0.0,0.0,0.0,0.0,0.0
1455208574.432573,6615,1455208574,428255599,base_link,0.0,0.0,0.0,0.0,-1.0,0.0,0.0,0.0,0.0,0.0,0.0,0.0,0.0,0.043675841877299504,-0.09693905535650586,0.022370551076071,0.0,0.0,0.0,0.0,0.0,0.0,0.0,0.0,0.0,-1.0298583984375,17.3351513671875,-0.7328759765625,0.0,0.0,0.0,0.0,0.0,0.0,0.0,0.0,0.0
1455208574.4326727,6617,1455208574,430253599,base_link,0.0,0.0,0.0,0.0,-1.0,0.0,0.0,0.0,0.0,0.0,0.0,0.0,0.0,0.2844256044204626,0.046871631024205385,0.4761731696166542,0.0,0.0,0.0,0.0,0.0,0.0,0.0,0.0,0.0,3.8368212890625,2.3471191406250003,-3.5685791015625004,0.0,0.0,0.0,0.0,0.0,0.0,0.0,0.0,0.0
1455208574.4424274,6618,1455208574,431252599,base_link,0.0,0.0,0.0,0.0,-1.0,0.0,0.0,0.0,0.0,0.0,0.0,0.0,0.0,0.138484368361742,0.03834951969714103,0.38029937037380157,0.0,0.0,0.0,0.0,0.0,0.0,0.0,0.0,0.0,2.519560546875,0.1149609375,-5.4079541015625,0.0,0.0,0.0,0.0,0.0,0.0,0.0,0.0,0.0
1455208574.4425106,6621,1455208574,434249599,base_link,0.0,0.0,0.0,0.0,-1.0,0.0,0.0,0.0,0.0,0.0,0.0,0.0,0.0,-0.009587379924285258,-0.18216020191666307,-0.6487460415433024,0.0,0.0,0.0,0.0,0.0,0.0,0.0,0.0,0.0,-2.462080078125,17.5363330078125,-0.162861328125,0.0,0.0,0.0,0.0,0.0,0.0,0.0,0.0,0.0
1455208574.4425838,6624,1455208574,437246599,base_link,0.0,0.0,0.0,0.0,-1.0,0.0,0.0,0.0,0.0,0.0,0.0,0.0,0.0,0.09587379092047416,0.06178533312864912,0.39627833691427705,0.0,0.0,0.0,0.0,0.0,0.0,0.0,0.0,0.0,0.11017089843750001,3.16142578125,-5.5229150390625,0.0,0.0,0.0,0.0,0.0,0.0,0.0,0.0,0.0
1455208574.4426591,6626,1455208574,439244599,base_link,0.0,0.0,0.0,0.0,-1.0,0.0,0.0,0.0,0.0,0.0,0.0,0.0,0.0,-0.027696873256229475,-0.05113268876833217,0.692421883420602,0.0,0.0,0.0,0.0,0.0,0.0,0.0,0.0,0.0,3.2572265625,13.661191406250001,-0.7664062500000001,0.0,0.0,0.0,0.0,0.0,0.0,0.0,0.0,0.0
1455208574.4427288,6627,1455208574,440243599,base_link,0.0,0.0,0.0,0.0,-1.0,0.0,0.0,0.0,0.0,0.0,0.0,0.0,0.0,0.004261057484052456,-0.13102751730952011,0.13635383948967858,0.0,0.0,0.0,0.0,0.0,0.0,0.0,0.0,0.0,2.8979736328125,13.594130859375001,0.19160156250000002,0.0,0.0,0.0,0.0,0.0,0.0,0.0,0.0,0.0
1455208574.4533658,6628,1455208574,441242599,base_link,0.0,0.0,0.0,0.0,-1.0,0.0,0.0,0.0,0.0,0.0,0.0,0.0,0.0,0.05432848207642726,-0.1587244009687226,-0.573112266585052,0.0,0.0,0.0,0.0,0.0,0.0,0.0,0.0,0.0,0.162861328125,10.8877587890625,-1.5184423828125,0.0,0.0,0.0,0.0,0.0,0.0,0.0,0.0,0.0
1455208574.453459,6632,1455208574,445238599,base_link,0.0,0.0,0.0,0.0,-1.0,0.0,0.0,0.0,0.0,0.0,0.0,0.0,0.0,0.10865696415285452,0.022370551076071,0.8053398470609343,0.0,0.0,0.0,0.0,0.0,0.0,0.0,0.0,0.0,0.929267578125,9.3453662109375,-2.1986279296875,0.0,0.0,0.0,0.0,0.0,0.0,0.0,0.0,0.0
1455208574.453536,6634,1455208574,447236599,base_link,0.0,0.0,0.0,0.0,-1.0,0.0,0.0,0.0,0.0,0.0,0.0,0.0,0.0,0.005326322180158476,-0.07030745277809189,0.5890912331255275,0.0,0.0,0.0,0.0,0.0,0.0,0.0,0.0,0.0,5.355263671875,12.0948486328125,-0.93884765625,0.0,0.0,0.0,0.0,0.0,0.0,0.0,0.0,0.0
1455208574.4536295,6637,1455208574,450233599,base_link,0.0,0.0,0.0,0.0,-1.0,0.0,0.0,0.0,0.0,0.0,0.0,0.0,0.0,0.18429073078872646,-0.11291802189698129,-0.8788430931471214,0.0,0.0,0.0,0.0,0.0,0.0,0.0,0.0,0.0,-4.4068359375,5.1684521484375,-4.665498046875,0.0,0.0,0.0,0.0,0.0,0.0,0.0,0.0,0.0
1455208574.4622316,6638,1455208574,451232599,base_link,0.0,0.0,0.0,0.0,-1.0,0.0,0.0,0.0,0.0,0.0,0.0,0.0,0.0,0.10546117084475942,-0.05432848207642726,-0.3163835375014135,0.0,0.0,0.0,0.0,0.0,0.0,0.0,0.0,0.0,-3.5398388671875,7.8508740234375,-2.768642578125,0.0,0.0,0.0,0.0,0.0,0.0,0.0,0.0,0.0
1455208574.4623148,6641,1455208574,454229599,base_link,0.0,0.0,0.0,0.0,-1.0,0.0,0.0,0.0,0.0,0.0,0.0,0.0,0.0,-0.1395496327977737,0.019174759848570515,0.6210491662064783,0.0,0.0,0.0,0.0,0.0,0.0,0.0,0.0,0.0,4.00447265625,9.1920849609375,-2.7303222656250004,0.0,0.0,0.0,0.0,0.0,0.0,0.0,0.0,0.0
1455208574.4623754,6643,1455208574,456227599,base_link,0.0,0.0,0.0,0.0,-1.0,0.0,0.0,0.0,0.0,0.0,0.0,0.0,0.0,0.08522115488253562,-0.12889698843745673,-0.5315669202903023,0.0,0.0,0.0,0.0,0.0,0.0,0.0,0.0,0.0,-1.2645703125,4.61759765625,-3.9996826171875,0.0,0.0,0.0,0.0,0.0,0.0,0.0,0.0,0.0
1455208574.4624338,6646,1455208574,459224599,base_link,0.0,0.0,0.0,0.0,-1.0,0.0,0.0,0.0,0.0,0.0,0.0,0.0,0.0,0.0031957930480207607,-0.010652644360316953,-0.001065264371013114,0.0,0.0,0.0,0.0,0.0,0.0,0.0,0.0,0.0,-1.1352392578125001,15.059882812500001,-0.3592529296875,0.0,0.0,0.0,0.0,0.0,0.0,0.0,0.0,0.0
1455208574.4624903,6647,1455208574,460223599,base_link,0.0,0.0,0.0,0.0,-1.0,0.0,0.0,0.0,0.0,0.0,0.0,0.0,0.0,0.056459010948490644,0.05432848207642726,0.44421523653570333,0.0,0.0,0.0,0.0,0.0,0.0,0.0,0.0,0.0,0.48379394531250003,11.103310546875,-2.0357666015625,0.0,0.0,0.0,0.0,0.0,0.0,0.0,0.0,0.0
1455208574.4722314,6650,1455208574,463220599,base_link,0.0,0.0,0.0,0.0,-1.0,0.0,0.0,0.0,0.0,0.0,0.0,0.0,0.0,0.16831178089300786,-0.14700649217237394,-0.01810949541253882,0.0,0.0,0.0,0.0,0.0,0.0,0.0,0.0,0.0,1.9974462890625,6.466552734375,-3.9278320312500004,0.0,0.0,0.0,0.0,0.0,0.0,0.0,0.0,0.0
1455208574.4723446,6652,1455208574,465218599,base_link,0.0,0.0,0.0,0.0,-1.0,0.0,0.0,0.0,0.0,0.0,0.0,0.0,0.0,0.15020228548046904,-0.069242184180871,-0.44421523653570333,0.0,0.0,0.0,0.0,0.0,0.0,0.0,0.0,0.0,-2.24173828125,15.7448583984375,0.0622705078125,0.0,0.0,0.0,0.0,0.0,0.0,0.0,0.0,0.0
1455208574.4724123,6656,1455208574,469214599,base_link,0.0,0.0,0.0,0.0,-1.0,0.0,0.0,0.0,0.0,0.0,0.0,0.0,0.0,0.01810949541253882,-0.08735168375459901,0.5305016558542707,0.0,0.0,0.0,0.0,0.0,0.0,0.0,0.0,0.0,3.2811767578125,8.205336914062501,-4.57927734375,0.0,0.0,0.0,0.0,0.0,0.0,0.0,0.0,0.0
1455208574.47247,6657,1455208574,470213599,base_link,0.0,0.0,0.0,0.0,-1.0,0.0,0.0,0.0,0.0,0.0,0.0,0.0,0.0,0.009587379924285258,-0.06391586200071252,0.4878910784130028,0.0,0.0,0.0,0.0,0.0,0.0,0.0,0.0,0.0,4.263134765625,13.8671630859375,-0.6083349609375001,0.0,0.0,0.0,0.0,0.0,0.0,0.0,0.0,0.0
1455208574.48311,6659,1455208574,472211599,base_link,0.0,0.0,0.0,0.0,-1.0,0.0,0.0,0.0,0.0,0.0,0.0,0.0,0.0,0.025566344384166086,0.006391586096041521,-0.2673813567991987,0.0,0.0,0.0,0.0,0.0,0.0,0.0,0.0,0.0,-0.8957373046875,9.072333984375,-0.929267578125,0.0,0.0,0.0,0.0,0.0,0.0,0.0,0.0,0.0
1455208574.4832022,6663,1455208574,476207599,base_link,0.0,0.0,0.0,0.0,-1.0,0.0,0.0,0.0,0.0,0.0,0.0,0.0,0.0,-0.2077265483814238,-0.05539374651245895,0.3589940816531677,0.0,0.0,0.0,0.0,0.0,0.0,0.0,0.0,0.0,0.18202148437500001,15.835869140625,-0.41194335937500004,0.0,0.0,0.0,0.0,0.0,0.0,0.0,0.0,0.0
1455208574.483266,6664,1455208574,477206599,base_link,0.0,0.0,0.0,0.0,-1.0,0.0,0.0,0.0,0.0,0.0,0.0,0.0,0.0,-0.01810949541253882,0.06498112643674421,0.7723166495439517,0.0,0.0,0.0,0.0,0.0,0.0,0.0,0.0,0.0,2.222578125,15.495776367187501,2.0645068359375003,0.0,0.0,0.0,0.0,0.0,0.0,0.0,0.0,0.0
1455208574.483323,6666,1455208574,479204599,base_link,0.0,0.0,0.0,0.0,-1.0,0.0,0.0,0.0,0.0,0.0,0.0,0.0,0.0,-0.010652644360316953,0.012783172192083043,0.24927186138665985,0.0,0.0,0.0,0.0,0.0,0.0,0.0,0.0,0.0,3.0464648437500004,0.45026367187500005,-3.8847216796875004,0.0,0.0,0.0,0.0,0.0,0.0,0.0,0.0,0.0
1455208574.4833782,6667,1455208574,480203599,base_link,0.0,0.0,0.0,0.0,-1.0,0.0,0.0,0.0,0.0,0.0,0.0,0.0,0.0,-0.19813916845713853,-0.1587244009687226,-0.42930153443125957,0.0,0.0,0.0,0.0,0.0,0.0,0.0,0.0,0.0,0.4742138671875,4.7373486328125,-5.6282958984375,0.0,0.0,0.0,0.0,0.0,0.0,0.0,0.0,0.0
1455208574.4920557,6670,1455208574,483200599,base_link,0.0,0.0,0.0,0.0,-1.0,0.0,0.0,0.0,0.0,0.0,0.0,0.0,0.0,0.2503371258226916,-0.03195793100035626,-0.18535599522475815,0.0,0.0,0.0,0.0,0.0,0.0,0.0,0.0,0.0,-2.3375390625000003,13.402529296875,0.0622705078125,0.0,0.0,0.0,0.0,0.0,0.0,0.0,0.0,0.0
1455208574.4921346,6672,1455208574,485198599,base_link,0.0,0.0,0.0,0.0,-1.0,0.0,0.0,0.0,0.0,0.0,0.0,0.0,0.0,0.2162486638696773,0.11291802189698129,0.876712564275058,0.0,0.0,0.0,0.0,0.0,0.0,0.0,0.0,0.0,3.1374755859375,1.504072265625,-4.2391845703125,0.0,0.0,0.0,0.0,0.0,0.0,0.0,0.0,0.0
